thisN,thisTrialN,thisRepN,mouse.x,mouse.y,mouse.leftButton,mouse.midButton,mouse.rightButton,mouse.time,mouse.clicked_name,trials.thisRepN,trials.thisTrialN,trials.thisN,trials.thisIndex,thisRow.t,notes,Welcome.started,text.started,Welcome.stopped,num_distr,trial.started,Fixation.started,target.started,mouse.started,trial.stopped,trials.mouse.x,trials.mouse.y,trials.mouse.leftButton,trials.mouse.midButton,trials.mouse.rightButton,trials.mouse.time,trials.mouse.clicked_name,Thank_You.started,participant,session,date,expName,expVersion,psychopyVersion,frameRate,expStart,
,,,,,,,,,,,,,,,,0.010561599978245795,0.028744300012476742,3.0135928000090644,,,,,,,,,,,,,,,3,001,2025-09-29_15h36.13.779,Visual Search_3.0,,2025.1.1,59.37427822247842,2025-09-29 15h36.19.162260 +0530,
0,0,0,"[np.float64(-0.018333333333333333), np.float64(-0.018333333333333333), np.float64(-0.01)]","[np.float64(-0.43666666666666665), np.float64(-0.43666666666666665), np.float64(-0.4666666666666667)]","[1, 1, 1]","[0, 0, 0]","[0, 0, 0]","[2.0690847999649122, 3.3516323999501765, 4.3844511999050155]","[None, None, 'target']",0,0,0,0,3.0774874000344425,,,,,5,3.0448131000157446,3.0774874000344425,3.0774874000344425,0.04484099999535829,7.429367600008845,"[np.float64(-0.018333333333333333), np.float64(-0.018333333333333333), np.float64(-0.01)]","[np.float64(-0.43666666666666665), np.float64(-0.43666666666666665), np.float64(-0.4666666666666667)]","[1, 1, 1]","[0, 0, 0]","[0, 0, 0]","[2.0690847999649122, 3.3516323999501765, 4.3844511999050155]","[None, None, 'target']",,3,001,2025-09-29_15h36.13.779,Visual Search_3.0,,2025.1.1,59.37427822247842,2025-09-29 15h36.19.162260 +0530,
1,0,1,[np.float64(0.445)],[np.float64(0.3)],[1],[0],[0],[2.1093694999581203],['target'],1,0,1,0,7.476272700005211,,,,,10,7.453858199995011,7.476272700005211,7.476272700005211,0.02420049998909235,9.563313200022094,[np.float64(0.445)],[np.float64(0.3)],[1],[0],[0],[2.1093694999581203],['target'],,3,001,2025-09-29_15h36.13.779,Visual Search_3.0,,2025.1.1,59.37427822247842,2025-09-29 15h36.19.162260 +0530,
2,0,2,[np.float64(-0.22666666666666666)],[np.float64(0.43166666666666664)],[1],[0],[0],[1.6611890000058338],['target'],2,0,2,0,9.609108399949037,,,,,10,9.585085000027902,9.609108399949037,9.609108399949037,0.021537699969485402,11.24637890001759,[np.float64(-0.22666666666666666)],[np.float64(0.43166666666666664)],[1],[0],[0],[1.6611890000058338],['target'],,3,001,2025-09-29_15h36.13.779,Visual Search_3.0,,2025.1.1,59.37427822247842,2025-09-29 15h36.19.162260 +0530,
3,0,3,[np.float64(-0.12166666666666667)],[np.float64(0.3333333333333333)],[1],[0],[0],[1.4128115000203252],['target'],3,0,3,0,11.275485699996352,,,,,5,11.266510599991307,11.275485699996352,11.275485699996352,0.019871000084094703,12.679423099965788,[np.float64(-0.12166666666666667)],[np.float64(0.3333333333333333)],[1],[0],[0],[1.4128115000203252],['target'],,3,001,2025-09-29_15h36.13.779,Visual Search_3.0,,2025.1.1,59.37427822247842,2025-09-29 15h36.19.162260 +0530,
4,0,4,[np.float64(-0.2)],[np.float64(0.12166666666666667)],[1],[0],[0],[1.7393857000861317],['target'],4,0,4,0,12.725812299991958,,,,,10,12.706122200004756,12.725812299991958,12.725812299991958,0.026419700006954372,14.445583899971098,[np.float64(-0.2)],[np.float64(0.12166666666666667)],[1],[0],[0],[1.7393857000861317],['target'],,3,001,2025-09-29_15h36.13.779,Visual Search_3.0,,2025.1.1,59.37427822247842,2025-09-29 15h36.19.162260 +0530,
5,0,5,[np.float64(-0.07833333333333334)],[np.float64(-0.18333333333333332)],[1],[0],[0],[1.7832059999927878],['target'],5,0,5,0,14.49248739995528,,,,,10,14.477762600057758,14.49248739995528,14.49248739995528,0.03188879997469485,16.261087200022303,[np.float64(-0.07833333333333334)],[np.float64(-0.18333333333333332)],[1],[0],[0],[1.7832059999927878],['target'],,3,001,2025-09-29_15h36.13.779,Visual Search_3.0,,2025.1.1,59.37427822247842,2025-09-29 15h36.19.162260 +0530,
6,0,6,[np.float64(0.12666666666666668)],[np.float64(-0.215)],[1],[0],[0],[1.6009403000352904],['target'],6,0,6,0,16.291886399965733,,,,,5,16.27721480000764,16.291886399965733,16.291886399965733,0.015885300002992153,17.878233899944462,[np.float64(0.12666666666666668)],[np.float64(-0.215)],[1],[0],[0],[1.6009403000352904],['target'],,3,001,2025-09-29_15h36.13.779,Visual Search_3.0,,2025.1.1,59.37427822247842,2025-09-29 15h36.19.162260 +0530,
7,0,7,[np.float64(-0.31833333333333336)],[np.float64(0.055)],[1],[0],[0],[2.2602714999811724],['target'],7,0,7,0,17.92522380000446,,,,,10,17.90111249999609,17.92522380000446,17.92522380000446,0.022671000100672245,20.16148200002499,[np.float64(-0.31833333333333336)],[np.float64(0.055)],[1],[0],[0],[2.2602714999811724],['target'],,3,001,2025-09-29_15h36.13.779,Visual Search_3.0,,2025.1.1,59.37427822247842,2025-09-29 15h36.19.162260 +0530,
8,0,8,[np.float64(-0.335)],[np.float64(0.19666666666666666)],[1],[0],[0],[1.2504949999274686],['target'],8,0,8,0,20.192249199957587,,,,,5,20.176450000028126,20.192249199957587,20.192249199957587,0.014698600047267973,21.427033900050446,[np.float64(-0.335)],[np.float64(0.19666666666666666)],[1],[0],[0],[1.2504949999274686],['target'],,3,001,2025-09-29_15h36.13.779,Visual Search_3.0,,2025.1.1,59.37427822247842,2025-09-29 15h36.19.162260 +0530,
9,0,9,[np.float64(0.1)],[np.float64(0.2733333333333333)],[1],[0],[0],[1.3050166999455541],['target'],9,0,9,0,21.474308399949223,,,,,10,21.455919199972413,21.474308399949223,21.474308399949223,0.028700500028207898,22.761006899992935,[np.float64(0.1)],[np.float64(0.2733333333333333)],[1],[0],[0],[1.3050166999455541],['target'],,3,001,2025-09-29_15h36.13.779,Visual Search_3.0,,2025.1.1,59.37427822247842,2025-09-29 15h36.19.162260 +0530,
10,0,10,[np.float64(0.26666666666666666)],[np.float64(-0.29)],[1],[0],[0],[1.4910443000262603],['target'],10,0,10,0,22.807961100013927,,,,,10,22.785869400016963,22.807961100013927,22.807961100013927,0.02463599992915988,24.27700320002623,[np.float64(0.26666666666666666)],[np.float64(-0.29)],[1],[0],[0],[1.4910443000262603],['target'],,3,001,2025-09-29_15h36.13.779,Visual Search_3.0,,2025.1.1,59.37427822247842,2025-09-29 15h36.19.162260 +0530,
11,0,11,[np.float64(0.1)],[np.float64(-0.22166666666666668)],[1],[0],[0],[1.304161199950613],['target'],11,0,11,0,24.324571699951775,,,,,10,24.307242000009865,24.324571699951775,24.324571699951775,0.03001859993673861,25.611467799986713,[np.float64(0.1)],[np.float64(-0.22166666666666668)],[1],[0],[0],[1.304161199950613],['target'],,3,001,2025-09-29_15h36.13.779,Visual Search_3.0,,2025.1.1,59.37427822247842,2025-09-29 15h36.19.162260 +0530,
12,0,12,[np.float64(0.021666666666666667)],[np.float64(0.29833333333333334)],[1],[0],[0],[2.3092163000255823],['target'],12,0,12,0,25.65751409996301,,,,,10,25.63440720003564,25.65751409996301,25.65751409996301,0.022743599954992533,27.943726300029084,[np.float64(0.021666666666666667)],[np.float64(0.29833333333333334)],[1],[0],[0],[2.3092163000255823],['target'],,3,001,2025-09-29_15h36.13.779,Visual Search_3.0,,2025.1.1,59.37427822247842,2025-09-29 15h36.19.162260 +0530,
13,0,13,[np.float64(0.25)],[np.float64(0.10333333333333333)],[1],[0],[0],[1.2872926000272855],['target'],13,0,13,0,27.973877800046466,,,,,5,27.957316100015305,27.973877800046466,27.973877800046466,0.013388899969868362,29.24470719997771,[np.float64(0.25)],[np.float64(0.10333333333333333)],[1],[0],[0],[1.2872926000272855],['target'],,3,001,2025-09-29_15h36.13.779,Visual Search_3.0,,2025.1.1,59.37427822247842,2025-09-29 15h36.19.162260 +0530,
14,0,14,[np.float64(-0.14333333333333334)],[np.float64(-0.14833333333333334)],[1],[0],[0],[1.4335297000361606],['target'],14,0,14,0,29.27379150001798,,,,,5,29.259323099977337,29.27379150001798,29.27379150001798,0.0144027000060305,30.692964300047606,[np.float64(-0.14333333333333334)],[np.float64(-0.14833333333333334)],[1],[0],[0],[1.4335297000361606],['target'],,3,001,2025-09-29_15h36.13.779,Visual Search_3.0,,2025.1.1,59.37427822247842,2025-09-29 15h36.19.162260 +0530,
15,0,15,"[np.float64(-0.255), np.float64(-0.24666666666666667)]","[np.float64(-0.30833333333333335), np.float64(-0.31166666666666665)]","[1, 1]","[0, 0]","[0, 0]","[1.1513794999336824, 2.866459999931976]","[None, 'target']",15,0,15,0,30.72353189997375,,,,,5,30.708993999985978,30.72353189997375,30.72353189997375,0.015799300046637654,33.57552499999292,"[np.float64(-0.255), np.float64(-0.24666666666666667)]","[np.float64(-0.30833333333333335), np.float64(-0.31166666666666665)]","[1, 1]","[0, 0]","[0, 0]","[1.1513794999336824, 2.866459999931976]","[None, 'target']",,3,001,2025-09-29_15h36.13.779,Visual Search_3.0,,2025.1.1,59.37427822247842,2025-09-29 15h36.19.162260 +0530,
16,0,16,[np.float64(-0.305)],[np.float64(-0.015)],[1],[0],[0],[1.6090464000590146],['target'],16,0,16,0,33.606603499967605,,,,,5,33.58596459997352,33.606603499967605,33.606603499967605,0.010278900037519634,35.19514269998763,[np.float64(-0.305)],[np.float64(-0.015)],[1],[0],[0],[1.6090464000590146],['target'],,3,001,2025-09-29_15h36.13.779,Visual Search_3.0,,2025.1.1,59.37427822247842,2025-09-29 15h36.19.162260 +0530,
17,0,17,[np.float64(-0.14666666666666667)],[np.float64(0.11333333333333333)],[1],[0],[0],[1.5115351000567898],['target'],17,0,17,0,35.222636600025,,,,,5,35.21469169994816,35.222636600025,35.222636600025,0.019276399980299175,36.726316199987195,[np.float64(-0.14666666666666667)],[np.float64(0.11333333333333333)],[1],[0],[0],[1.5115351000567898],['target'],,3,001,2025-09-29_15h36.13.779,Visual Search_3.0,,2025.1.1,59.37427822247842,2025-09-29 15h36.19.162260 +0530,
18,0,18,[np.float64(-0.10666666666666667)],[np.float64(0.325)],[1],[0],[0],[1.2025554000865668],['target'],18,0,18,0,36.755906700040214,,,,,5,36.74039339995943,36.755906700040214,36.755906700040214,0.01389589998871088,37.94305899995379,[np.float64(-0.10666666666666667)],[np.float64(0.325)],[1],[0],[0],[1.2025554000865668],['target'],,3,001,2025-09-29_15h36.13.779,Visual Search_3.0,,2025.1.1,59.37427822247842,2025-09-29 15h36.19.162260 +0530,
19,0,19,[np.float64(0.016666666666666666)],[np.float64(0.3433333333333333)],[1],[0],[0],[1.2403007000684738],['target'],19,0,19,0,37.9894617999671,,,,,10,37.969226700020954,37.9894617999671,37.9894617999671,0.025945400004275143,39.20979130000342,[np.float64(0.016666666666666666)],[np.float64(0.3433333333333333)],[1],[0],[0],[1.2403007000684738],['target'],,3,001,2025-09-29_15h36.13.779,Visual Search_3.0,,2025.1.1,59.37427822247842,2025-09-29 15h36.19.162260 +0530,
20,0,20,[np.float64(0.041666666666666664)],[np.float64(0.21)],[1],[0],[0],[1.0768386999843642],['target'],20,0,20,0,39.25619989994448,,,,,5,39.23346380004659,39.25619989994448,39.25619989994448,0.023273500031791627,40.31041140004527,[np.float64(0.041666666666666664)],[np.float64(0.21)],[1],[0],[0],[1.0768386999843642],['target'],,3,001,2025-09-29_15h36.13.779,Visual Search_3.0,,2025.1.1,59.37427822247842,2025-09-29 15h36.19.162260 +0530,
21,0,21,[np.float64(0.19833333333333333)],[np.float64(-0.09333333333333334)],[1],[0],[0],[2.41119910008274],['target'],21,0,21,0,40.38913200004026,,,,,10,40.3649146000389,40.38913200004026,40.38913200004026,0.05432389990892261,42.776214199955575,[np.float64(0.19833333333333333)],[np.float64(-0.09333333333333334)],[1],[0],[0],[2.41119910008274],['target'],,3,001,2025-09-29_15h36.13.779,Visual Search_3.0,,2025.1.1,59.37427822247842,2025-09-29 15h36.19.162260 +0530,
22,0,22,[np.float64(0.056666666666666664)],[np.float64(0.015)],[1],[0],[0],[1.2176180999958888],['target'],22,0,22,0,42.805359399993904,,,,,5,42.7919869000325,42.805359399993904,42.805359399993904,0.015444100019522011,44.00971779995598,[np.float64(0.056666666666666664)],[np.float64(0.015)],[1],[0],[0],[1.2176180999958888],['target'],,3,001,2025-09-29_15h36.13.779,Visual Search_3.0,,2025.1.1,59.37427822247842,2025-09-29 15h36.19.162260 +0530,
23,0,23,[np.float64(0.18666666666666668)],[np.float64(0.49166666666666664)],[1],[0],[0],[2.8655086000217125],['target'],23,0,23,0,44.03842009999789,,,,,5,44.02665000001434,44.03842009999789,44.03842009999789,0.01671080000232905,46.892265300033614,[np.float64(0.18666666666666668)],[np.float64(0.49166666666666664)],[1],[0],[0],[2.8655086000217125],['target'],,3,001,2025-09-29_15h36.13.779,Visual Search_3.0,,2025.1.1,59.37427822247842,2025-09-29 15h36.19.162260 +0530,
24,0,24,[np.float64(0.22166666666666668)],[np.float64(0.15666666666666668)],[1],[0],[0],[1.3135539999930188],['target'],24,0,24,0,46.92160999996122,,,,,5,46.91203050001059,46.92160999996122,46.92160999996122,0.01952859992161393,48.22570269997232,[np.float64(0.22166666666666668)],[np.float64(0.15666666666666668)],[1],[0],[0],[1.3135539999930188],['target'],,3,001,2025-09-29_15h36.13.779,Visual Search_3.0,,2025.1.1,59.37427822247842,2025-09-29 15h36.19.162260 +0530,
25,0,25,[np.float64(-0.3233333333333333)],[np.float64(0.41333333333333333)],[1],[0],[0],[1.2834519000025466],['target'],25,0,25,0,48.254765399964526,,,,,5,48.241434299969114,48.254765399964526,48.254765399964526,0.015501399990171194,49.524975699954666,[np.float64(-0.3233333333333333)],[np.float64(0.41333333333333333)],[1],[0],[0],[1.2834519000025466],['target'],,3,001,2025-09-29_15h36.13.779,Visual Search_3.0,,2025.1.1,59.37427822247842,2025-09-29 15h36.19.162260 +0530,
26,0,26,[np.float64(-0.2733333333333333)],[np.float64(0.3283333333333333)],[1],[0],[0],[1.1937271000351757],['target'],26,0,26,0,49.57122399995569,,,,,10,49.547437499975786,49.57122399995569,49.57122399995569,0.02226700005121529,50.74129040003754,[np.float64(-0.2733333333333333)],[np.float64(0.3283333333333333)],[1],[0],[0],[1.1937271000351757],['target'],,3,001,2025-09-29_15h36.13.779,Visual Search_3.0,,2025.1.1,59.37427822247842,2025-09-29 15h36.19.162260 +0530,
27,0,27,[np.float64(0.4066666666666667)],[np.float64(-0.4216666666666667)],[1],[0],[0],[3.2916335000190884],['target'],27,0,27,0,50.78732390003279,,,,,10,50.76471719995607,50.78732390003279,50.78732390003279,0.023155100061558187,54.05642889998853,[np.float64(0.4066666666666667)],[np.float64(-0.4216666666666667)],[1],[0],[0],[3.2916335000190884],['target'],,3,001,2025-09-29_15h36.13.779,Visual Search_3.0,,2025.1.1,59.37427822247842,2025-09-29 15h36.19.162260 +0530,
28,0,28,[np.float64(0.3383333333333333)],[np.float64(-0.405)],[1],[0],[0],[1.2613942000316456],['target'],28,0,28,0,54.10382269998081,,,,,10,54.07848030002788,54.10382269998081,54.10382269998081,0.021833500009961426,55.34000049997121,[np.float64(0.3383333333333333)],[np.float64(-0.405)],[1],[0],[0],[1.2613942000316456],['target'],,3,001,2025-09-29_15h36.13.779,Visual Search_3.0,,2025.1.1,59.37427822247842,2025-09-29 15h36.19.162260 +0530,
29,0,29,[np.float64(0.09166666666666666)],[np.float64(0.31)],[1],[0],[0],[1.3737113999668509],['target'],29,0,29,0,55.38670280005317,,,,,10,55.36705450003501,55.38670280005317,55.38670280005317,0.026847400004044175,56.74085309996735,[np.float64(0.09166666666666666)],[np.float64(0.31)],[1],[0],[0],[1.3737113999668509],['target'],,3,001,2025-09-29_15h36.13.779,Visual Search_3.0,,2025.1.1,59.37427822247842,2025-09-29 15h36.19.162260 +0530,
30,0,30,"[np.float64(0.385), np.float64(0.39666666666666667)]","[np.float64(-0.4716666666666667), np.float64(-0.4716666666666667)]","[1, 1]","[0, 0]","[0, 0]","[1.9009895999915898, 3.383965600049123]","[None, 'target']",30,0,30,0,56.80379210005049,,,,,10,56.772686399985105,56.80379210005049,56.80379210005049,0.031605100026354194,60.156743700033985,"[np.float64(0.385), np.float64(0.39666666666666667)]","[np.float64(-0.4716666666666667), np.float64(-0.4716666666666667)]","[1, 1]","[0, 0]","[0, 0]","[1.9009895999915898, 3.383965600049123]","[None, 'target']",,3,001,2025-09-29_15h36.13.779,Visual Search_3.0,,2025.1.1,59.37427822247842,2025-09-29 15h36.19.162260 +0530,
31,0,31,[np.float64(-0.17)],[np.float64(0.2916666666666667)],[1],[0],[0],[1.728643500013277],['target'],31,0,31,0,60.20310319995042,,,,,5,60.17861930001527,60.20310319995042,60.20310319995042,0.02162570005748421,61.90735090000089,[np.float64(-0.17)],[np.float64(0.2916666666666667)],[1],[0],[0],[1.728643500013277],['target'],,3,001,2025-09-29_15h36.13.779,Visual Search_3.0,,2025.1.1,59.37427822247842,2025-09-29 15h36.19.162260 +0530,
32,0,32,[np.float64(-0.055)],[np.float64(-0.45666666666666667)],[1],[0],[0],[2.8499317000387236],['target'],32,0,32,0,61.952921899966896,,,,,10,61.93919720000122,61.952921899966896,61.952921899966896,0.03161770000588149,64.78924149996601,[np.float64(-0.055)],[np.float64(-0.45666666666666667)],[1],[0],[0],[2.8499317000387236],['target'],,3,001,2025-09-29_15h36.13.779,Visual Search_3.0,,2025.1.1,59.37427822247842,2025-09-29 15h36.19.162260 +0530,
33,0,33,[np.float64(0.4633333333333333)],[np.float64(-0.415)],[1],[0],[0],[1.3743706999812275],['target'],33,0,33,0,64.8357837999938,,,,,5,64.81576320005115,64.8357837999938,64.8357837999938,0.02619919995777309,66.19019270001445,[np.float64(0.4633333333333333)],[np.float64(-0.415)],[1],[0],[0],[1.3743706999812275],['target'],,3,001,2025-09-29_15h36.13.779,Visual Search_3.0,,2025.1.1,59.37427822247842,2025-09-29 15h36.19.162260 +0530,
34,0,34,[np.float64(0.04833333333333333)],[np.float64(-0.41833333333333333)],[1],[0],[0],[1.385797500028275],['target'],34,0,34,0,66.21919309999794,,,,,5,66.20330159994774,66.21919309999794,66.21919309999794,0.012940900051034987,67.58929689996876,[np.float64(0.04833333333333333)],[np.float64(-0.41833333333333333)],[1],[0],[0],[1.385797500028275],['target'],,3,001,2025-09-29_15h36.13.779,Visual Search_3.0,,2025.1.1,59.37427822247842,2025-09-29 15h36.19.162260 +0530,
35,0,35,[np.float64(0.17666666666666667)],[np.float64(0.34)],[1],[0],[0],[2.082476400071755],['target'],35,0,35,0,67.61892619996797,,,,,5,67.60624039999675,67.61892619996797,67.61892619996797,0.016694999998435378,69.6888256999664,[np.float64(0.17666666666666667)],[np.float64(0.34)],[1],[0],[0],[2.082476400071755],['target'],,3,001,2025-09-29_15h36.13.779,Visual Search_3.0,,2025.1.1,59.37427822247842,2025-09-29 15h36.19.162260 +0530,
36,0,36,[np.float64(0.17333333333333334)],[np.float64(-0.45666666666666667)],[1],[0],[0],[1.875782800023444],['target'],36,0,36,0,69.73585449997336,,,,,10,69.71273909998126,69.73585449997336,69.73585449997336,0.023676600074395537,71.58861570002045,[np.float64(0.17333333333333334)],[np.float64(-0.45666666666666667)],[1],[0],[0],[1.875782800023444],['target'],,3,001,2025-09-29_15h36.13.779,Visual Search_3.0,,2025.1.1,59.37427822247842,2025-09-29 15h36.19.162260 +0530,
37,0,37,[np.float64(0.02)],[np.float64(0.37166666666666665)],[1],[0],[0],[2.2078258999390528],['target'],37,0,37,0,71.63463910005521,,,,,10,71.61354080005549,71.63463910005521,71.63463910005521,0.024668000056408346,73.82143969996832,[np.float64(0.02)],[np.float64(0.37166666666666665)],[1],[0],[0],[2.2078258999390528],['target'],,3,001,2025-09-29_15h36.13.779,Visual Search_3.0,,2025.1.1,59.37427822247842,2025-09-29 15h36.19.162260 +0530,
38,0,38,[np.float64(-0.23166666666666666)],[np.float64(0.06166666666666667)],[1],[0],[0],[1.941395999980159],['target'],38,0,38,0,73.86785709997639,,,,,10,73.84650550002698,73.86785709997639,73.86785709997639,0.02485659997910261,75.78799149999395,[np.float64(-0.23166666666666666)],[np.float64(0.06166666666666667)],[1],[0],[0],[1.941395999980159],['target'],,3,001,2025-09-29_15h36.13.779,Visual Search_3.0,,2025.1.1,59.37427822247842,2025-09-29 15h36.19.162260 +0530,
39,0,39,[np.float64(0.11166666666666666)],[np.float64(-0.018333333333333333)],[1],[0],[0],[1.454136100015603],['target'],39,0,39,0,75.81790420005564,,,,,5,75.80099859996699,75.81790420005564,75.81790420005564,0.012765199993737042,77.25524389999919,[np.float64(0.11166666666666666)],[np.float64(-0.018333333333333333)],[1],[0],[0],[1.454136100015603],['target'],,3,001,2025-09-29_15h36.13.779,Visual Search_3.0,,2025.1.1,59.37427822247842,2025-09-29 15h36.19.162260 +0530,
40,0,40,[np.float64(-0.06666666666666667)],[np.float64(0.12)],[1],[0],[0],[1.4374571999069303],['target'],40,0,40,0,77.30106750002597,,,,,5,77.28426069999114,77.30106750002597,77.30106750002597,0.028813500073738396,78.72180489997845,[np.float64(-0.06666666666666667)],[np.float64(0.12)],[1],[0],[0],[1.4374571999069303],['target'],,3,001,2025-09-29_15h36.13.779,Visual Search_3.0,,2025.1.1,59.37427822247842,2025-09-29 15h36.19.162260 +0530,
41,0,41,[np.float64(0.03)],[np.float64(0.23)],[1],[0],[0],[1.232262899982743],['target'],41,0,41,0,78.78379679995123,,,,,10,78.77181870001368,78.78379679995123,78.78379679995123,0.04984250001143664,80.00417129998095,[np.float64(0.03)],[np.float64(0.23)],[1],[0],[0],[1.232262899982743],['target'],,3,001,2025-09-29_15h36.13.779,Visual Search_3.0,,2025.1.1,59.37427822247842,2025-09-29 15h36.19.162260 +0530,
42,0,42,[np.float64(0.16833333333333333)],[np.float64(-0.08333333333333333)],[1],[0],[0],[1.2521756999194622],['target'],42,0,42,0,80.0335704999743,,,,,5,80.01930739998352,80.0335704999743,80.0335704999743,0.014910000027157366,81.27156539994758,[np.float64(0.16833333333333333)],[np.float64(-0.08333333333333333)],[1],[0],[0],[1.2521756999194622],['target'],,3,001,2025-09-29_15h36.13.779,Visual Search_3.0,,2025.1.1,59.37427822247842,2025-09-29 15h36.19.162260 +0530,
43,0,43,[np.float64(-0.15333333333333332)],[np.float64(0.295)],[1],[0],[0],[1.6814736999804154],['target'],43,0,43,0,81.30190269998275,,,,,5,81.28836450004019,81.30190269998275,81.30190269998275,0.016565399942919612,82.96996949997265,[np.float64(-0.15333333333333332)],[np.float64(0.295)],[1],[0],[0],[1.6814736999804154],['target'],,3,001,2025-09-29_15h36.13.779,Visual Search_3.0,,2025.1.1,59.37427822247842,2025-09-29 15h36.19.162260 +0530,
44,0,44,[np.float64(-0.24833333333333332)],[np.float64(-0.415)],[1],[0],[0],[1.954462300054729],['target'],44,0,44,0,83.01660630002152,,,,,10,82.9995902000228,83.01660630002152,83.01660630002152,0.029366800095885992,84.95413229998667,[np.float64(-0.24833333333333332)],[np.float64(-0.415)],[1],[0],[0],[1.954462300054729],['target'],,3,001,2025-09-29_15h36.13.779,Visual Search_3.0,,2025.1.1,59.37427822247842,2025-09-29 15h36.19.162260 +0530,
45,0,45,[np.float64(-0.43)],[np.float64(0.31833333333333336)],[1],[0],[0],[1.9496911000460386],['target'],45,0,45,0,85.01652259996627,,,,,10,84.98593950003851,85.01652259996627,85.01652259996627,0.03155820001848042,86.93569579999894,[np.float64(-0.43)],[np.float64(0.31833333333333336)],[1],[0],[0],[1.9496911000460386],['target'],,3,001,2025-09-29_15h36.13.779,Visual Search_3.0,,2025.1.1,59.37427822247842,2025-09-29 15h36.19.162260 +0530,
46,0,46,[np.float64(-0.37)],[np.float64(0.25)],[1],[0],[0],[1.1994123000185937],['target'],46,0,46,0,86.98270239995327,,,,,10,86.96908800001256,86.98270239995327,86.98270239995327,0.03321640007197857,88.16858689999208,[np.float64(-0.37)],[np.float64(0.25)],[1],[0],[0],[1.1994123000185937],['target'],,3,001,2025-09-29_15h36.13.779,Visual Search_3.0,,2025.1.1,59.37427822247842,2025-09-29 15h36.19.162260 +0530,
47,0,47,[np.float64(0.42833333333333334)],[np.float64(-0.11833333333333333)],[1],[0],[0],[2.1083172999788076],['target'],47,0,47,0,88.21621260000393,,,,,10,88.193764799973,88.21621260000393,88.21621260000393,0.02497400005813688,90.30215410003439,[np.float64(0.42833333333333334)],[np.float64(-0.11833333333333333)],[1],[0],[0],[2.1083172999788076],['target'],,3,001,2025-09-29_15h36.13.779,Visual Search_3.0,,2025.1.1,59.37427822247842,2025-09-29 15h36.19.162260 +0530,
48,0,48,[np.float64(-0.17)],[np.float64(-0.04)],[1],[0],[0],[1.462398200063035],['target'],48,0,48,0,90.34912250004709,,,,,10,90.32396559999324,90.34912250004709,90.34912250004709,0.021623100037686527,91.7864883999573,[np.float64(-0.17)],[np.float64(-0.04)],[1],[0],[0],[1.462398200063035],['target'],,3,001,2025-09-29_15h36.13.779,Visual Search_3.0,,2025.1.1,59.37427822247842,2025-09-29 15h36.19.162260 +0530,
49,0,49,[np.float64(-0.09166666666666666)],[np.float64(0.015)],[1],[0],[0],[1.2121676000533625],['target'],49,0,49,0,91.84918899997137,,,,,10,91.8221637000097,91.84918899997137,91.84918899997137,0.03540409996639937,93.0344018000178,[np.float64(-0.09166666666666666)],[np.float64(0.015)],[1],[0],[0],[1.2121676000533625],['target'],,3,001,2025-09-29_15h36.13.779,Visual Search_3.0,,2025.1.1,59.37427822247842,2025-09-29 15h36.19.162260 +0530,
50,0,50,[np.float64(-0.3516666666666667)],[np.float64(-0.24333333333333335)],[1],[0],[0],[1.658575400011614],['target'],50,0,50,0,93.08173430000897,,,,,10,93.05840129998978,93.08173430000897,93.08173430000897,0.023778699920512736,94.71705289999954,[np.float64(-0.3516666666666667)],[np.float64(-0.24333333333333335)],[1],[0],[0],[1.658575400011614],['target'],,3,001,2025-09-29_15h36.13.779,Visual Search_3.0,,2025.1.1,59.37427822247842,2025-09-29 15h36.19.162260 +0530,
51,0,51,[np.float64(0.06)],[np.float64(0.028333333333333332)],[1],[0],[0],[1.877354700001888],['target'],51,0,51,0,94.76528509997297,,,,,10,94.74057190003805,94.76528509997297,94.76528509997297,0.02333949995227158,96.61805030005053,[np.float64(0.06)],[np.float64(0.028333333333333332)],[1],[0],[0],[1.877354700001888],['target'],,3,001,2025-09-29_15h36.13.779,Visual Search_3.0,,2025.1.1,59.37427822247842,2025-09-29 15h36.19.162260 +0530,
52,0,52,[np.float64(-0.43833333333333335)],[np.float64(-0.47333333333333333)],[1],[0],[0],[1.4520471000578254],['target'],52,0,52,0,96.64804460003506,,,,,5,96.6328966000583,96.64804460003506,96.64804460003506,0.01462500006891787,98.08505430002697,[np.float64(-0.43833333333333335)],[np.float64(-0.47333333333333333)],[1],[0],[0],[1.4520471000578254],['target'],,3,001,2025-09-29_15h36.13.779,Visual Search_3.0,,2025.1.1,59.37427822247842,2025-09-29 15h36.19.162260 +0530,
53,0,53,[np.float64(-0.41833333333333333)],[np.float64(0.4083333333333333)],[1],[0],[0],[1.401562900049612],['target'],53,0,53,0,98.13163389998954,,,,,10,98.11646389996167,98.13163389998954,98.13163389998954,0.031188799999654293,99.51808890001848,[np.float64(-0.41833333333333333)],[np.float64(0.4083333333333333)],[1],[0],[0],[1.401562900049612],['target'],,3,001,2025-09-29_15h36.13.779,Visual Search_3.0,,2025.1.1,59.37427822247842,2025-09-29 15h36.19.162260 +0530,
54,0,54,[np.float64(0.22833333333333333)],[np.float64(-0.3383333333333333)],[1],[0],[0],[2.4511226000031456],['target'],54,0,54,0,99.56476570002269,,,,,10,99.54923829995096,99.56476570002269,99.56476570002269,0.031012100051157176,102.00041920004878,[np.float64(0.22833333333333333)],[np.float64(-0.3383333333333333)],[1],[0],[0],[2.4511226000031456],['target'],,3,001,2025-09-29_15h36.13.779,Visual Search_3.0,,2025.1.1,59.37427822247842,2025-09-29 15h36.19.162260 +0530,
55,0,55,[np.float64(-0.12666666666666668)],[np.float64(0.32166666666666666)],[1],[0],[0],[1.9570965999737382],['target'],55,0,55,0,102.03088660002686,,,,,5,102.0113435999956,102.03088660002686,102.03088660002686,0.010703700012527406,103.96854150004219,[np.float64(-0.12666666666666668)],[np.float64(0.32166666666666666)],[1],[0],[0],[1.9570965999737382],['target'],,3,001,2025-09-29_15h36.13.779,Visual Search_3.0,,2025.1.1,59.37427822247842,2025-09-29 15h36.19.162260 +0530,
56,0,56,[np.float64(0.4766666666666667)],[np.float64(0.05333333333333334)],[1],[0],[0],[1.4953206999925897],['target'],56,0,56,0,104.01387200003956,,,,,5,103.98935429996345,104.01387200003956,104.01387200003956,0.02062969992402941,105.48481399996672,[np.float64(0.4766666666666667)],[np.float64(0.05333333333333334)],[1],[0],[0],[1.4953206999925897],['target'],,3,001,2025-09-29_15h36.13.779,Visual Search_3.0,,2025.1.1,59.37427822247842,2025-09-29 15h36.19.162260 +0530,
57,0,57,[np.float64(-0.4116666666666667)],[np.float64(-0.06833333333333333)],[1],[0],[0],[2.3350324999773875],['target'],57,0,57,0,105.53075379994698,,,,,10,105.51592749997508,105.53075379994698,105.53075379994698,0.030939999967813492,107.85105559998192,[np.float64(-0.4116666666666667)],[np.float64(-0.06833333333333333)],[1],[0],[0],[2.3350324999773875],['target'],,3,001,2025-09-29_15h36.13.779,Visual Search_3.0,,2025.1.1,59.37427822247842,2025-09-29 15h36.19.162260 +0530,
58,0,58,[np.float64(-0.18833333333333332)],[np.float64(0.17166666666666666)],[1],[0],[0],[1.4101188000058755],['target'],58,0,58,0,107.89720400003716,,,,,10,107.87378869997337,107.89720400003716,107.89720400003716,0.02247470000293106,109.28399060002994,[np.float64(-0.18833333333333332)],[np.float64(0.17166666666666666)],[1],[0],[0],[1.4101188000058755],['target'],,3,001,2025-09-29_15h36.13.779,Visual Search_3.0,,2025.1.1,59.37427822247842,2025-09-29 15h36.19.162260 +0530,
59,0,59,[np.float64(-0.265)],[np.float64(0.02)],[1],[0],[0],[1.8420619000680745],['target'],59,0,59,0,109.33003539999481,,,,,10,109.30879429995548,109.33003539999481,109.33003539999481,0.024545000051148236,111.15095419995487,[np.float64(-0.265)],[np.float64(0.02)],[1],[0],[0],[1.8420619000680745],['target'],,3,001,2025-09-29_15h36.13.779,Visual Search_3.0,,2025.1.1,59.37427822247842,2025-09-29 15h36.19.162260 +0530,
60,0,60,[np.float64(0.25833333333333336)],[np.float64(-0.28)],[1],[0],[0],[1.8029193000402302],['target'],60,0,60,0,111.21324069995899,,,,,10,111.1805444000056,111.21324069995899,111.21324069995899,0.02935520000755787,112.98354609997477,[np.float64(0.25833333333333336)],[np.float64(-0.28)],[1],[0],[0],[1.8029193000402302],['target'],,3,001,2025-09-29_15h36.13.779,Visual Search_3.0,,2025.1.1,59.37427822247842,2025-09-29 15h36.19.162260 +0530,
61,0,61,[np.float64(0.32)],[np.float64(0.20333333333333334)],[1],[0],[0],[1.8540639000711963],['target'],61,0,61,0,113.01351700001396,,,,,5,112.99708450003527,113.01351700001396,113.01351700001396,0.013376099988818169,114.85110750002787,[np.float64(0.32)],[np.float64(0.20333333333333334)],[1],[0],[0],[1.8540639000711963],['target'],,3,001,2025-09-29_15h36.13.779,Visual Search_3.0,,2025.1.1,59.37427822247842,2025-09-29 15h36.19.162260 +0530,
62,0,62,[np.float64(-0.26)],[np.float64(-0.405)],[1],[0],[0],[1.93754940002691],['target'],62,0,62,0,114.91252989997156,,,,,5,114.87908490002155,114.91252989997156,114.91252989997156,0.027795600006356835,116.81672510004137,[np.float64(-0.26)],[np.float64(-0.405)],[1],[0],[0],[1.93754940002691],['target'],,3,001,2025-09-29_15h36.13.779,Visual Search_3.0,,2025.1.1,59.37427822247842,2025-09-29 15h36.19.162260 +0530,
63,0,63,[np.float64(0.05333333333333334)],[np.float64(-0.18666666666666668)],[1],[0],[0],[1.657821699976921],['target'],63,0,63,0,116.86283440003172,,,,,10,116.84084640000947,116.86283440003172,116.86283440003172,0.02390699996612966,118.49874629999977,[np.float64(0.05333333333333334)],[np.float64(-0.18666666666666668)],[1],[0],[0],[1.657821699976921],['target'],,3,001,2025-09-29_15h36.13.779,Visual Search_3.0,,2025.1.1,59.37427822247842,2025-09-29 15h36.19.162260 +0530,
64,0,64,[np.float64(-0.13166666666666665)],[np.float64(0.345)],[1],[0],[0],[1.3772793000098318],['target'],64,0,64,0,118.54592840000987,,,,,10,118.52192890003789,118.54592840000987,118.54592840000987,0.02295590005815029,119.89931530004833,[np.float64(-0.13166666666666665)],[np.float64(0.345)],[1],[0],[0],[1.3772793000098318],['target'],,3,001,2025-09-29_15h36.13.779,Visual Search_3.0,,2025.1.1,59.37427822247842,2025-09-29 15h36.19.162260 +0530,
65,0,65,[np.float64(-0.42333333333333334)],[np.float64(-0.055)],[1],[0],[0],[1.520108800032176],['target'],65,0,65,0,119.94557430001441,,,,,5,119.92815050005447,119.94557430001441,119.94557430001441,0.02858889999333769,121.44834740005899,[np.float64(-0.42333333333333334)],[np.float64(-0.055)],[1],[0],[0],[1.520108800032176],['target'],,3,001,2025-09-29_15h36.13.779,Visual Search_3.0,,2025.1.1,59.37427822247842,2025-09-29 15h36.19.162260 +0530,
66,0,66,[np.float64(-0.11)],[np.float64(-0.14833333333333334)],[1],[0],[0],[1.510880299960263],['target'],66,0,66,0,121.49510870000813,,,,,5,121.471293300041,121.49510870000813,121.49510870000813,0.02261400001589209,122.98228160000872,[np.float64(-0.11)],[np.float64(-0.14833333333333334)],[1],[0],[0],[1.510880299960263],['target'],,3,001,2025-09-29_15h36.13.779,Visual Search_3.0,,2025.1.1,59.37427822247842,2025-09-29 15h36.19.162260 +0530,
67,0,67,[np.float64(-0.31666666666666665)],[np.float64(-0.018333333333333333)],[1],[0],[0],[1.5497691000346094],['target'],67,0,67,0,123.01198519999161,,,,,5,122.99763320002239,123.01198519999161,123.01198519999161,0.015104499994777143,124.54749819997232,[np.float64(-0.31666666666666665)],[np.float64(-0.018333333333333333)],[1],[0],[0],[1.5497691000346094],['target'],,3,001,2025-09-29_15h36.13.779,Visual Search_3.0,,2025.1.1,59.37427822247842,2025-09-29 15h36.19.162260 +0530,
68,0,68,[np.float64(0.48)],[np.float64(0.305)],[1],[0],[0],[1.453040499938652],['target'],68,0,68,0,124.57838500000071,,,,,5,124.56176309997682,124.57838500000071,124.57838500000071,0.01408880006056279,126.01489250001032,[np.float64(0.48)],[np.float64(0.305)],[1],[0],[0],[1.453040499938652],['target'],,3,001,2025-09-29_15h36.13.779,Visual Search_3.0,,2025.1.1,59.37427822247842,2025-09-29 15h36.19.162260 +0530,
69,0,69,"[np.float64(0.29), np.float64(0.27)]","[np.float64(-0.305), np.float64(-0.285)]","[1, 1]","[0, 0]","[0, 0]","[1.8335258000297472, 3.0831556000048295]","[None, 'target']",69,0,69,0,126.04446280002594,,,,,5,126.03109720000066,126.04446280002594,126.04446280002594,0.01600559998769313,129.11434259999078,"[np.float64(0.29), np.float64(0.27)]","[np.float64(-0.305), np.float64(-0.285)]","[1, 1]","[0, 0]","[0, 0]","[1.8335258000297472, 3.0831556000048295]","[None, 'target']",,3,001,2025-09-29_15h36.13.779,Visual Search_3.0,,2025.1.1,59.37427822247842,2025-09-29 15h36.19.162260 +0530,
70,0,70,[np.float64(-0.045)],[np.float64(0.4116666666666667)],[1],[0],[0],[2.143016100046225],['target'],70,0,70,0,129.161121299956,,,,,10,129.13880269997753,129.161121299956,129.161121299956,0.02419770008418709,131.28191869996954,[np.float64(-0.045)],[np.float64(0.4116666666666667)],[1],[0],[0],[2.143016100046225],['target'],,3,001,2025-09-29_15h36.13.779,Visual Search_3.0,,2025.1.1,59.37427822247842,2025-09-29 15h36.19.162260 +0530,
71,0,71,[np.float64(-0.38166666666666665)],[np.float64(-0.25333333333333335)],[1],[0],[0],[1.832579999929294],['target'],71,0,71,0,131.31071860005613,,,,,5,131.2987698999932,131.31071860005613,131.31071860005613,0.01660740002989769,133.13144380005542,[np.float64(-0.38166666666666665)],[np.float64(-0.25333333333333335)],[1],[0],[0],[1.832579999929294],['target'],,3,001,2025-09-29_15h36.13.779,Visual Search_3.0,,2025.1.1,59.37427822247842,2025-09-29 15h36.19.162260 +0530,
72,0,72,"[np.float64(0.18833333333333332), np.float64(0.21333333333333335)]","[np.float64(0.47833333333333333), np.float64(0.4816666666666667)]","[1, 1]","[0, 0]","[0, 0]","[1.9192422000924125, 3.184710400062613]","[None, 'target']",72,0,72,0,133.1609230999602,,,,,5,133.14522119995672,133.1609230999602,133.1609230999602,0.013556299963966012,136.33003640000243,"[np.float64(0.18833333333333332), np.float64(0.21333333333333335)]","[np.float64(0.47833333333333333), np.float64(0.4816666666666667)]","[1, 1]","[0, 0]","[0, 0]","[1.9192422000924125, 3.184710400062613]","[None, 'target']",,3,001,2025-09-29_15h36.13.779,Visual Search_3.0,,2025.1.1,59.37427822247842,2025-09-29 15h36.19.162260 +0530,
73,0,73,[np.float64(-0.135)],[np.float64(0.4216666666666667)],[1],[0],[0],[1.8389805000042543],['target'],73,0,73,0,136.3767741000047,,,,,10,136.3568158999551,136.3767741000047,136.3767741000047,0.026530100032687187,138.19588340003975,[np.float64(-0.135)],[np.float64(0.4216666666666667)],[1],[0],[0],[1.8389805000042543],['target'],,3,001,2025-09-29_15h36.13.779,Visual Search_3.0,,2025.1.1,59.37427822247842,2025-09-29 15h36.19.162260 +0530,
74,0,74,[np.float64(-0.16833333333333333)],[np.float64(0.175)],[1],[0],[0],[1.5167279999004677],['target'],74,0,74,0,138.26035290001892,,,,,10,138.2299891000148,138.26035290001892,138.26035290001892,0.03393049992155284,139.74675900000148,[np.float64(-0.16833333333333333)],[np.float64(0.175)],[1],[0],[0],[1.5167279999004677],['target'],,3,001,2025-09-29_15h36.13.779,Visual Search_3.0,,2025.1.1,59.37427822247842,2025-09-29 15h36.19.162260 +0530,
75,0,75,[np.float64(-0.15)],[np.float64(0.335)],[1],[0],[0],[1.2360234999796376],['target'],75,0,75,0,139.7758205999853,,,,,5,139.76088309998158,139.7758205999853,139.7758205999853,0.013950100052170455,140.99701149994507,[np.float64(-0.15)],[np.float64(0.335)],[1],[0],[0],[1.2360234999796376],['target'],,3,001,2025-09-29_15h36.13.779,Visual Search_3.0,,2025.1.1,59.37427822247842,2025-09-29 15h36.19.162260 +0530,
76,0,76,[np.float64(-0.0033333333333333335)],[np.float64(0.08)],[1],[0],[0],[1.5337688000872731],['target'],76,0,76,0,141.026705199969,,,,,5,141.01228489994537,141.026705199969,141.026705199969,0.015048100030981004,142.546164499945,[np.float64(-0.0033333333333333335)],[np.float64(0.08)],[1],[0],[0],[1.5337688000872731],['target'],,3,001,2025-09-29_15h36.13.779,Visual Search_3.0,,2025.1.1,59.37427822247842,2025-09-29 15h36.19.162260 +0530,
77,0,77,[np.float64(-0.3333333333333333)],[np.float64(0.46166666666666667)],[1],[0],[0],[1.571486199973151],['target'],77,0,77,0,142.5925991999684,,,,,5,142.57337260001805,142.5925991999684,142.5925991999684,0.026998099987395108,144.1449050999945,[np.float64(-0.3333333333333333)],[np.float64(0.46166666666666667)],[1],[0],[0],[1.571486199973151],['target'],,3,001,2025-09-29_15h36.13.779,Visual Search_3.0,,2025.1.1,59.37427822247842,2025-09-29 15h36.19.162260 +0530,
78,0,78,[np.float64(0.028333333333333332)],[np.float64(0.3383333333333333)],[1],[0],[0],[1.4821008000290021],['target'],78,0,78,0,144.25901859998703,,,,,10,144.22857519995887,144.25901859998703,144.25901859998703,0.08346720004919916,145.71076239994727,[np.float64(0.028333333333333332)],[np.float64(0.3383333333333333)],[1],[0],[0],[1.4821008000290021],['target'],,3,001,2025-09-29_15h36.13.779,Visual Search_3.0,,2025.1.1,59.37427822247842,2025-09-29 15h36.19.162260 +0530,
79,0,79,[np.float64(0.13833333333333334)],[np.float64(0.4716666666666667)],[1],[0],[0],[1.3575714000035077],['target'],79,0,79,0,145.75896600005217,,,,,10,145.73727679997683,145.75896600005217,145.75896600005217,0.026283899904228747,147.0949517999543,[np.float64(0.13833333333333334)],[np.float64(0.4716666666666667)],[1],[0],[0],[1.3575714000035077],['target'],,3,001,2025-09-29_15h36.13.779,Visual Search_3.0,,2025.1.1,59.37427822247842,2025-09-29 15h36.19.162260 +0530,
80,0,80,[np.float64(-0.285)],[np.float64(0.38333333333333336)],[1],[0],[0],[1.4515897000674158],['target'],80,0,80,0,147.14187559997663,,,,,10,147.1262416000245,147.14187559997663,147.14187559997663,0.03101320005953312,148.5779281000141,[np.float64(-0.285)],[np.float64(0.38333333333333336)],[1],[0],[0],[1.4515897000674158],['target'],,3,001,2025-09-29_15h36.13.779,Visual Search_3.0,,2025.1.1,59.37427822247842,2025-09-29 15h36.19.162260 +0530,
81,0,81,"[np.float64(0.013333333333333334), np.float64(0.02666666666666667)]","[np.float64(-0.24833333333333332), np.float64(-0.2783333333333333)]","[1, 1]","[0, 0]","[0, 0]","[1.7215910999802873, 2.8545196000486612]","[None, 'target']",81,0,81,0,148.62653949996457,,,,,10,148.60649070004,148.62653949996457,148.62653949996457,0.028367299935780466,151.46104119997472,"[np.float64(0.013333333333333334), np.float64(0.02666666666666667)]","[np.float64(-0.24833333333333332), np.float64(-0.2783333333333333)]","[1, 1]","[0, 0]","[0, 0]","[1.7215910999802873, 2.8545196000486612]","[None, 'target']",,3,001,2025-09-29_15h36.13.779,Visual Search_3.0,,2025.1.1,59.37427822247842,2025-09-29 15h36.19.162260 +0530,
82,0,82,[np.float64(-0.46166666666666667)],[np.float64(0.4866666666666667)],[1],[0],[0],[2.4789177000056952],['target'],82,0,82,0,151.50784570001997,,,,,5,151.4832162000239,151.50784570001997,151.50784570001997,0.02193499996792525,153.96221449994482,[np.float64(-0.46166666666666667)],[np.float64(0.4866666666666667)],[1],[0],[0],[2.4789177000056952],['target'],,3,001,2025-09-29_15h36.13.779,Visual Search_3.0,,2025.1.1,59.37427822247842,2025-09-29 15h36.19.162260 +0530,
83,0,83,"[np.float64(0.12166666666666667), np.float64(0.145)]","[np.float64(0.36), np.float64(0.36833333333333335)]","[1, 1]","[0, 0]","[0, 0]","[1.3964048000052571, 2.4145713999168947]","[None, 'target']",83,0,83,0,153.99066470004618,,,,,5,153.98084930004552,153.99066470004618,153.99066470004618,0.018421499989926815,156.3955227000406,"[np.float64(0.12166666666666667), np.float64(0.145)]","[np.float64(0.36), np.float64(0.36833333333333335)]","[1, 1]","[0, 0]","[0, 0]","[1.3964048000052571, 2.4145713999168947]","[None, 'target']",,3,001,2025-09-29_15h36.13.779,Visual Search_3.0,,2025.1.1,59.37427822247842,2025-09-29 15h36.19.162260 +0530,
84,0,84,[np.float64(0.15166666666666667)],[np.float64(-0.04833333333333333)],[1],[0],[0],[1.8670303999679163],['target'],84,0,84,0,156.4578459999757,,,,,10,156.42816070001572,156.4578459999757,156.4578459999757,0.03239200008101761,158.29530510003679,[np.float64(0.15166666666666667)],[np.float64(-0.04833333333333333)],[1],[0],[0],[1.8670303999679163],['target'],,3,001,2025-09-29_15h36.13.779,Visual Search_3.0,,2025.1.1,59.37427822247842,2025-09-29 15h36.19.162260 +0530,
85,0,85,[np.float64(0.23833333333333334)],[np.float64(-0.20833333333333334)],[1],[0],[0],[1.633142999955453],['target'],85,0,85,0,158.3569202000508,,,,,10,158.32787160004955,158.3569202000508,158.3569202000508,0.03228809998836368,159.96111020003445,[np.float64(0.23833333333333334)],[np.float64(-0.20833333333333334)],[1],[0],[0],[1.633142999955453],['target'],,3,001,2025-09-29_15h36.13.779,Visual Search_3.0,,2025.1.1,59.37427822247842,2025-09-29 15h36.19.162260 +0530,
86,0,86,[np.float64(0.12166666666666667)],[np.float64(0.04)],[1],[0],[0],[1.2092414000071585],['target'],86,0,86,0,160.0071172999451,,,,,10,159.98411510000005,160.0071172999451,160.0071172999451,0.022794999997131526,161.19346610002685,[np.float64(0.12166666666666667)],[np.float64(0.04)],[1],[0],[0],[1.2092414000071585],['target'],,3,001,2025-09-29_15h36.13.779,Visual Search_3.0,,2025.1.1,59.37427822247842,2025-09-29 15h36.19.162260 +0530,
87,0,87,"[np.float64(0.20333333333333334), np.float64(0.19166666666666668)]","[np.float64(0.24333333333333335), np.float64(0.24666666666666667)]","[1, 1]","[0, 0]","[0, 0]","[1.783283600001596, 3.03327730007004]","[None, 'target']",87,0,87,0,161.2238698999863,,,,,5,161.2099990999559,161.2238698999863,161.2238698999863,0.01625610003247857,164.24336900003254,"[np.float64(0.20333333333333334), np.float64(0.19166666666666668)]","[np.float64(0.24333333333333335), np.float64(0.24666666666666667)]","[1, 1]","[0, 0]","[0, 0]","[1.783283600001596, 3.03327730007004]","[None, 'target']",,3,001,2025-09-29_15h36.13.779,Visual Search_3.0,,2025.1.1,59.37427822247842,2025-09-29 15h36.19.162260 +0530,
88,0,88,[np.float64(0.39166666666666666)],[np.float64(-0.03)],[1],[0],[0],[2.8612562998896465],['target'],88,0,88,0,164.30673910002224,,,,,10,164.28267940005753,164.30673910002224,164.30673910002224,0.03904609999153763,167.14401449996512,[np.float64(0.39166666666666666)],[np.float64(-0.03)],[1],[0],[0],[2.8612562998896465],['target'],,3,001,2025-09-29_15h36.13.779,Visual Search_3.0,,2025.1.1,59.37427822247842,2025-09-29 15h36.19.162260 +0530,
89,0,89,[np.float64(0.37666666666666665)],[np.float64(0.33)],[1],[0],[0],[1.3497142000123858],['target'],89,0,89,0,167.17239349999,,,,,5,167.15822550002486,167.17239349999,167.17239349999,0.014018299989402294,168.50798630004283,[np.float64(0.37666666666666665)],[np.float64(0.33)],[1],[0],[0],[1.3497142000123858],['target'],,3,001,2025-09-29_15h36.13.779,Visual Search_3.0,,2025.1.1,59.37427822247842,2025-09-29 15h36.19.162260 +0530,
90,0,90,[np.float64(0.44666666666666666)],[np.float64(0.2683333333333333)],[1],[0],[0],[1.0354000000515953],['target'],90,0,90,0,168.5389519999735,,,,,5,168.5251887999475,168.5389519999735,168.5389519999735,0.017083199927583337,169.56070130004082,[np.float64(0.44666666666666666)],[np.float64(0.2683333333333333)],[1],[0],[0],[1.0354000000515953],['target'],,3,001,2025-09-29_15h36.13.779,Visual Search_3.0,,2025.1.1,59.37427822247842,2025-09-29 15h36.19.162260 +0530,
91,0,91,[np.float64(0.33)],[np.float64(0.4166666666666667)],[1],[0],[0],[1.5150970000540838],['target'],91,0,91,0,169.63856929994654,,,,,10,169.61219000001438,169.63856929994654,169.63856929994654,0.05119980010204017,171.12733130005654,[np.float64(0.33)],[np.float64(0.4166666666666667)],[1],[0],[0],[1.5150970000540838],['target'],,3,001,2025-09-29_15h36.13.779,Visual Search_3.0,,2025.1.1,59.37427822247842,2025-09-29 15h36.19.162260 +0530,
92,0,92,"[np.float64(0.43333333333333335), np.float64(0.4766666666666667), np.float64(0.4583333333333333)]","[np.float64(0.0), np.float64(0.008333333333333333), np.float64(0.018333333333333333)]","[1, 1, 1]","[0, 0, 0]","[0, 0, 0]","[1.685066599980928, 2.6834346000105143, 3.7174786999821663]","[None, None, 'target']",92,0,92,0,171.15512769995257,,,,,5,171.14123309997376,171.15512769995257,171.15512769995257,0.013707100064493716,174.85885099996813,"[np.float64(0.43333333333333335), np.float64(0.4766666666666667), np.float64(0.4583333333333333)]","[np.float64(0.0), np.float64(0.008333333333333333), np.float64(0.018333333333333333)]","[1, 1, 1]","[0, 0, 0]","[0, 0, 0]","[1.685066599980928, 2.6834346000105143, 3.7174786999821663]","[None, None, 'target']",,3,001,2025-09-29_15h36.13.779,Visual Search_3.0,,2025.1.1,59.37427822247842,2025-09-29 15h36.19.162260 +0530,
93,0,93,[np.float64(-0.47333333333333333)],[np.float64(0.32666666666666666)],[1],[0],[0],[2.0972134000621736],['target'],93,0,93,0,174.888030000031,,,,,5,174.87875519995578,174.888030000031,174.888030000031,0.019633600022643805,176.97609570005443,[np.float64(-0.47333333333333333)],[np.float64(0.32666666666666666)],[1],[0],[0],[2.0972134000621736],['target'],,3,001,2025-09-29_15h36.13.779,Visual Search_3.0,,2025.1.1,59.37427822247842,2025-09-29 15h36.19.162260 +0530,
94,0,94,[np.float64(0.075)],[np.float64(0.051666666666666666)],[1],[0],[0],[1.8679147999500856],['target'],94,0,94,0,177.0383276999928,,,,,10,177.00601669994649,177.0383276999928,177.0383276999928,0.029692200012505054,178.87404669995885,[np.float64(0.075)],[np.float64(0.051666666666666666)],[1],[0],[0],[1.8679147999500856],['target'],,3,001,2025-09-29_15h36.13.779,Visual Search_3.0,,2025.1.1,59.37427822247842,2025-09-29 15h36.19.162260 +0530,
95,0,95,[np.float64(-0.14333333333333334)],[np.float64(-0.28833333333333333)],[1],[0],[0],[1.6421960999723524],['target'],95,0,95,0,178.9210054000141,,,,,10,178.8986574000446,178.9210054000141,178.9210054000141,0.024405900039710104,180.54093530005775,[np.float64(-0.14333333333333334)],[np.float64(-0.28833333333333333)],[1],[0],[0],[1.6421960999723524],['target'],,3,001,2025-09-29_15h36.13.779,Visual Search_3.0,,2025.1.1,59.37427822247842,2025-09-29 15h36.19.162260 +0530,
96,0,96,"[np.float64(-0.45666666666666667), np.float64(-0.48833333333333334)]","[np.float64(-0.12833333333333333), np.float64(-0.12833333333333333)]","[1, 1]","[0, 0]","[0, 0]","[1.369242800050415, 2.4361885000253096]","[None, 'target']",96,0,96,0,180.57107269996777,,,,,5,180.5553152000066,180.57107269996777,180.57107269996777,0.014169400092214346,182.99161899997853,"[np.float64(-0.45666666666666667), np.float64(-0.48833333333333334)]","[np.float64(-0.12833333333333333), np.float64(-0.12833333333333333)]","[1, 1]","[0, 0]","[0, 0]","[1.369242800050415, 2.4361885000253096]","[None, 'target']",,3,001,2025-09-29_15h36.13.779,Visual Search_3.0,,2025.1.1,59.37427822247842,2025-09-29 15h36.19.162260 +0530,
97,0,97,[np.float64(-0.3883333333333333)],[np.float64(-0.2733333333333333)],[1],[0],[0],[1.9973759000422433],['target'],97,0,97,0,183.0205280999653,,,,,5,183.00915169995278,183.0205280999653,183.0205280999653,0.017285099951550364,185.0066339999903,[np.float64(-0.3883333333333333)],[np.float64(-0.2733333333333333)],[1],[0],[0],[1.9973759000422433],['target'],,3,001,2025-09-29_15h36.13.779,Visual Search_3.0,,2025.1.1,59.37427822247842,2025-09-29 15h36.19.162260 +0530,
98,0,98,"[np.float64(0.4266666666666667), np.float64(0.39)]","[np.float64(-0.375), np.float64(-0.37333333333333335)]","[1, 1]","[0, 0]","[0, 0]","[2.0246471000136808, 2.9588684999616817]","[None, 'target']",98,0,98,0,185.05388460005634,,,,,10,185.03173259994946,185.05388460005634,185.05388460005634,0.02486440003849566,187.99072590004653,"[np.float64(0.4266666666666667), np.float64(0.39)]","[np.float64(-0.375), np.float64(-0.37333333333333335)]","[1, 1]","[0, 0]","[0, 0]","[2.0246471000136808, 2.9588684999616817]","[None, 'target']",,3,001,2025-09-29_15h36.13.779,Visual Search_3.0,,2025.1.1,59.37427822247842,2025-09-29 15h36.19.162260 +0530,
99,0,99,[np.float64(-0.011666666666666667)],[np.float64(0.30833333333333335)],[1],[0],[0],[2.3420672999927774],['target'],99,0,99,0,188.03645290003624,,,,,10,188.0154144000262,188.03645290003624,188.03645290003624,0.024377499939873815,190.35754770005587,[np.float64(-0.011666666666666667)],[np.float64(0.30833333333333335)],[1],[0],[0],[2.3420672999927774],['target'],,3,001,2025-09-29_15h36.13.779,Visual Search_3.0,,2025.1.1,59.37427822247842,2025-09-29 15h36.19.162260 +0530,
100,0,100,[np.float64(-0.18166666666666667)],[np.float64(0.015)],[1],[0],[0],[1.4730777000077069],['target'],100,0,100,0,190.38644489995204,,,,,5,190.36739160004072,190.38644489995204,190.38644489995204,0.009678900009021163,191.84057410003152,[np.float64(-0.18166666666666667)],[np.float64(0.015)],[1],[0],[0],[1.4730777000077069],['target'],,3,001,2025-09-29_15h36.13.779,Visual Search_3.0,,2025.1.1,59.37427822247842,2025-09-29 15h36.19.162260 +0530,
101,0,101,[np.float64(0.23833333333333334)],[np.float64(0.4266666666666667)],[1],[0],[0],[1.7768109000753611],['target'],101,0,101,0,191.88644489995204,,,,,10,191.86339229997247,191.88644489995204,191.88644489995204,0.022619100054726005,193.64028900000267,[np.float64(0.23833333333333334)],[np.float64(0.4266666666666667)],[1],[0],[0],[1.7768109000753611],['target'],,3,001,2025-09-29_15h36.13.779,Visual Search_3.0,,2025.1.1,59.37427822247842,2025-09-29 15h36.19.162260 +0530,
102,0,102,[np.float64(-0.07)],[np.float64(-0.11833333333333333)],[1],[0],[0],[1.6600254999939352],['target'],102,0,102,0,193.68593040003907,,,,,10,193.66195920004975,193.68593040003907,193.68593040003907,0.02145070000551641,195.3220620000502,[np.float64(-0.07)],[np.float64(-0.11833333333333333)],[1],[0],[0],[1.6600254999939352],['target'],,3,001,2025-09-29_15h36.13.779,Visual Search_3.0,,2025.1.1,59.37427822247842,2025-09-29 15h36.19.162260 +0530,
103,0,103,[np.float64(-0.20666666666666667)],[np.float64(0.35333333333333333)],[1],[0],[0],[1.756159899989143],['target'],103,0,103,0,195.35270609997679,,,,,5,195.33366300002672,195.35270609997679,195.35270609997679,0.011429399950429797,197.08991740003694,[np.float64(-0.20666666666666667)],[np.float64(0.35333333333333333)],[1],[0],[0],[1.756159899989143],['target'],,3,001,2025-09-29_15h36.13.779,Visual Search_3.0,,2025.1.1,59.37427822247842,2025-09-29 15h36.19.162260 +0530,
104,0,104,[np.float64(-0.31166666666666665)],[np.float64(-0.43333333333333335)],[1],[0],[0],[1.8924832999473438],['target'],104,0,104,0,197.1360272000311,,,,,10,197.11338700004853,197.1360272000311,197.1360272000311,0.023250299971550703,199.00598560005892,[np.float64(-0.31166666666666665)],[np.float64(-0.43333333333333335)],[1],[0],[0],[1.8924832999473438],['target'],,3,001,2025-09-29_15h36.13.779,Visual Search_3.0,,2025.1.1,59.37427822247842,2025-09-29 15h36.19.162260 +0530,
105,0,105,[np.float64(-0.08833333333333333)],[np.float64(-0.33166666666666667)],[1],[0],[0],[1.4219692000187933],['target'],105,0,105,0,199.05240080005024,,,,,10,199.0324735000031,199.05240080005024,199.05240080005024,0.0261977999471128,200.45453760004602,[np.float64(-0.08833333333333333)],[np.float64(-0.33166666666666667)],[1],[0],[0],[1.4219692000187933],['target'],,3,001,2025-09-29_15h36.13.779,Visual Search_3.0,,2025.1.1,59.37427822247842,2025-09-29 15h36.19.162260 +0530,
106,0,106,[np.float64(-0.09666666666666666)],[np.float64(-0.13)],[1],[0],[0],[1.2857395000755787],['target'],106,0,106,0,200.50129020004533,,,,,10,200.48569110000972,200.50129020004533,200.50129020004533,0.03092569997534156,201.7715055999579,[np.float64(-0.09666666666666666)],[np.float64(-0.13)],[1],[0],[0],[1.2857395000755787],['target'],,3,001,2025-09-29_15h36.13.779,Visual Search_3.0,,2025.1.1,59.37427822247842,2025-09-29 15h36.19.162260 +0530,
107,0,107,[np.float64(0.24333333333333335)],[np.float64(-0.295)],[1],[0],[0],[1.8064761999994516],['target'],107,0,107,0,201.8017843000125,,,,,5,201.78198490000796,201.8017843000125,201.8017843000125,0.010255200089886785,203.58859940001275,[np.float64(0.24333333333333335)],[np.float64(-0.295)],[1],[0],[0],[1.8064761999994516],['target'],,3,001,2025-09-29_15h36.13.779,Visual Search_3.0,,2025.1.1,59.37427822247842,2025-09-29 15h36.19.162260 +0530,
108,0,108,[np.float64(0.31)],[np.float64(0.21833333333333332)],[1],[0],[0],[1.5155272000702098],['target'],108,0,108,0,203.61768849997316,,,,,5,203.60499999998137,203.61768849997316,203.61768849997316,0.016168600064702332,205.1207301999675,[np.float64(0.31)],[np.float64(0.21833333333333332)],[1],[0],[0],[1.5155272000702098],['target'],,3,001,2025-09-29_15h36.13.779,Visual Search_3.0,,2025.1.1,59.37427822247842,2025-09-29 15h36.19.162260 +0530,
109,0,109,[np.float64(-0.18833333333333332)],[np.float64(0.3)],[1],[0],[0],[2.2034171000123024],['target'],109,0,109,0,205.16795699996874,,,,,10,205.15079029998742,205.16795699996874,205.16795699996874,0.029862200026400387,207.35428420000244,[np.float64(-0.18833333333333332)],[np.float64(0.3)],[1],[0],[0],[2.2034171000123024],['target'],,3,001,2025-09-29_15h36.13.779,Visual Search_3.0,,2025.1.1,59.37427822247842,2025-09-29 15h36.19.162260 +0530,
110,0,110,"[np.float64(0.245), np.float64(0.25833333333333336)]","[np.float64(-0.335), np.float64(-0.38)]","[1, 1]","[0, 0]","[0, 0]","[2.3038674000417814, 3.486167100025341]","[None, 'target']",110,0,110,0,207.40083349996712,,,,,10,207.38396690005902,207.40083349996712,207.40083349996712,0.029477099888026714,210.87025050004013,"[np.float64(0.245), np.float64(0.25833333333333336)]","[np.float64(-0.335), np.float64(-0.38)]","[1, 1]","[0, 0]","[0, 0]","[2.3038674000417814, 3.486167100025341]","[None, 'target']",,3,001,2025-09-29_15h36.13.779,Visual Search_3.0,,2025.1.1,59.37427822247842,2025-09-29 15h36.19.162260 +0530,
111,0,111,[np.float64(-0.12166666666666667)],[np.float64(0.305)],[1],[0],[0],[1.8378053999040276],['target'],111,0,111,0,210.9171054000035,,,,,10,210.9006213999819,210.9171054000035,210.9171054000035,0.030084999976679683,212.7385043000104,[np.float64(-0.12166666666666667)],[np.float64(0.305)],[1],[0],[0],[1.8378053999040276],['target'],,3,001,2025-09-29_15h36.13.779,Visual Search_3.0,,2025.1.1,59.37427822247842,2025-09-29 15h36.19.162260 +0530,
112,0,112,[np.float64(-0.31666666666666665)],[np.float64(0.02666666666666667)],[1],[0],[0],[1.70878960005939],['target'],112,0,112,0,212.78403320000507,,,,,10,212.76132439996582,212.78403320000507,212.78403320000507,0.022607300081290305,214.4702035000082,[np.float64(-0.31666666666666665)],[np.float64(0.02666666666666667)],[1],[0],[0],[1.70878960005939],['target'],,3,001,2025-09-29_15h36.13.779,Visual Search_3.0,,2025.1.1,59.37427822247842,2025-09-29 15h36.19.162260 +0530,
113,0,113,[np.float64(0.40166666666666667)],[np.float64(-0.26166666666666666)],[1],[0],[0],[2.453004700015299],['target'],113,0,113,0,214.5163403999759,,,,,10,214.49942719994579,214.5163403999759,214.5163403999759,0.029011499951593578,216.95252829999663,[np.float64(0.40166666666666667)],[np.float64(-0.26166666666666666)],[1],[0],[0],[2.453004700015299],['target'],,3,001,2025-09-29_15h36.13.779,Visual Search_3.0,,2025.1.1,59.37427822247842,2025-09-29 15h36.19.162260 +0530,
114,0,114,[np.float64(0.40166666666666667)],[np.float64(-0.15666666666666668)],[1],[0],[0],[1.0625535000581294],['target'],114,0,114,0,217.0000223000534,,,,,5,216.97442790004425,217.0000223000534,217.0000223000534,0.021725300000980496,218.03707299998496,[np.float64(0.40166666666666667)],[np.float64(-0.15666666666666668)],[1],[0],[0],[1.0625535000581294],['target'],,3,001,2025-09-29_15h36.13.779,Visual Search_3.0,,2025.1.1,59.37427822247842,2025-09-29 15h36.19.162260 +0530,
115,0,115,[np.float64(0.30833333333333335)],[np.float64(0.023333333333333334)],[1],[0],[0],[1.1920617000432685],['target'],115,0,115,0,218.08350920001976,,,,,10,218.06007360003423,218.08350920001976,218.08350920001976,0.02278839994687587,219.2522120999638,[np.float64(0.30833333333333335)],[np.float64(0.023333333333333334)],[1],[0],[0],[1.1920617000432685],['target'],,3,001,2025-09-29_15h36.13.779,Visual Search_3.0,,2025.1.1,59.37427822247842,2025-09-29 15h36.19.162260 +0530,
116,0,116,[np.float64(0.225)],[np.float64(-0.36833333333333335)],[1],[0],[0],[1.3936201999895275],['target'],116,0,116,0,219.29912079998758,,,,,10,219.27735470002517,219.29912079998758,219.29912079998758,0.024951100000180304,220.67106249998324,[np.float64(0.225)],[np.float64(-0.36833333333333335)],[1],[0],[0],[1.3936201999895275],['target'],,3,001,2025-09-29_15h36.13.779,Visual Search_3.0,,2025.1.1,59.37427822247842,2025-09-29 15h36.19.162260 +0530,
117,0,117,"[np.float64(0.29), np.float64(0.315)]","[np.float64(-0.3883333333333333), np.float64(-0.4083333333333333)]","[1, 1]","[0, 0]","[0, 0]","[2.016985099995509, 3.150063000037335]","[None, 'target']",117,0,117,0,220.6993617999833,,,,,5,220.68533380003646,220.6993617999833,220.6993617999833,0.014052200014702976,223.83550839999225,"[np.float64(0.29), np.float64(0.315)]","[np.float64(-0.3883333333333333), np.float64(-0.4083333333333333)]","[1, 1]","[0, 0]","[0, 0]","[2.016985099995509, 3.150063000037335]","[None, 'target']",,3,001,2025-09-29_15h36.13.779,Visual Search_3.0,,2025.1.1,59.37427822247842,2025-09-29 15h36.19.162260 +0530,
118,0,118,[np.float64(-0.11166666666666666)],[np.float64(0.14833333333333334)],[1],[0],[0],[1.7336561999982223],['target'],118,0,118,0,223.86546470003668,,,,,5,223.8521299000131,223.86546470003668,223.86546470003668,0.01638939999975264,225.58588410005905,[np.float64(-0.11166666666666666)],[np.float64(0.14833333333333334)],[1],[0],[0],[1.7336561999982223],['target'],,3,001,2025-09-29_15h36.13.779,Visual Search_3.0,,2025.1.1,59.37427822247842,2025-09-29 15h36.19.162260 +0530,
119,0,119,"[np.float64(-0.5133333333333333), np.float64(-0.49833333333333335)]","[np.float64(0.30333333333333334), np.float64(0.3)]","[1, 1]","[0, 0]","[0, 0]","[2.1458097000140697, 3.4308353000087664]","[None, 'target']",119,0,119,0,225.61548000003677,,,,,5,225.60438090004027,225.61548000003677,225.61548000003677,0.018318900023587048,229.03531469998416,"[np.float64(-0.5133333333333333), np.float64(-0.49833333333333335)]","[np.float64(0.30333333333333334), np.float64(0.3)]","[1, 1]","[0, 0]","[0, 0]","[2.1458097000140697, 3.4308353000087664]","[None, 'target']",,3,001,2025-09-29_15h36.13.779,Visual Search_3.0,,2025.1.1,59.37427822247842,2025-09-29 15h36.19.162260 +0530,
120,0,120,[np.float64(-0.21333333333333335)],[np.float64(-0.0016666666666666668)],[1],[0],[0],[1.5780016999924555],['target'],120,0,120,0,229.0652536000125,,,,,5,229.05698150000535,229.0652536000125,229.0652536000125,0.0214329999871552,230.63509700004943,[np.float64(-0.21333333333333335)],[np.float64(-0.0016666666666666668)],[1],[0],[0],[1.5780016999924555],['target'],,3,001,2025-09-29_15h36.13.779,Visual Search_3.0,,2025.1.1,59.37427822247842,2025-09-29 15h36.19.162260 +0530,
121,0,121,[np.float64(0.27166666666666667)],[np.float64(-0.18666666666666668)],[1],[0],[0],[3.067302899900824],['target'],121,0,121,0,230.68158169998787,,,,,10,230.6660168999806,230.68158169998787,230.68158169998787,0.030687999911606312,233.73339970002417,[np.float64(0.27166666666666667)],[np.float64(-0.18666666666666668)],[1],[0],[0],[3.067302899900824],['target'],,3,001,2025-09-29_15h36.13.779,Visual Search_3.0,,2025.1.1,59.37427822247842,2025-09-29 15h36.19.162260 +0530,
122,0,122,[np.float64(0.2783333333333333)],[np.float64(-0.395)],[1],[0],[0],[2.3452397000510246],['target'],122,0,122,0,233.78106619999744,,,,,10,233.75588559999596,233.78106619999744,233.78106619999744,0.022270500077866018,236.10120979999192,[np.float64(0.2783333333333333)],[np.float64(-0.395)],[1],[0],[0],[2.3452397000510246],['target'],,3,001,2025-09-29_15h36.13.779,Visual Search_3.0,,2025.1.1,59.37427822247842,2025-09-29 15h36.19.162260 +0530,
123,0,123,[np.float64(-0.10833333333333334)],[np.float64(0.058333333333333334)],[1],[0],[0],[1.4034764999523759],['target'],123,0,123,0,236.16408170002978,,,,,10,236.13237340003252,236.16408170002978,236.16408170002978,0.03095540008507669,237.53590719995555,[np.float64(-0.10833333333333334)],[np.float64(0.058333333333333334)],[1],[0],[0],[1.4034764999523759],['target'],,3,001,2025-09-29_15h36.13.779,Visual Search_3.0,,2025.1.1,59.37427822247842,2025-09-29 15h36.19.162260 +0530,
124,0,124,[np.float64(-0.2833333333333333)],[np.float64(0.145)],[1],[0],[0],[1.3098437000298873],['target'],124,0,124,0,237.58055279997643,,,,,10,237.55803600000218,237.58055279997643,237.58055279997643,0.021913899923674762,238.8679557000287,[np.float64(-0.2833333333333333)],[np.float64(0.145)],[1],[0],[0],[1.3098437000298873],['target'],,3,001,2025-09-29_15h36.13.779,Visual Search_3.0,,2025.1.1,59.37427822247842,2025-09-29 15h36.19.162260 +0530,
125,0,125,[np.float64(-0.3416666666666667)],[np.float64(0.2633333333333333)],[1],[0],[0],[1.2161031001014635],['target'],125,0,125,0,238.9316879999824,,,,,10,238.90086649998557,238.9316879999824,238.9316879999824,0.03259089996572584,240.11705380002968,[np.float64(-0.3416666666666667)],[np.float64(0.2633333333333333)],[1],[0],[0],[1.2161031001014635],['target'],,3,001,2025-09-29_15h36.13.779,Visual Search_3.0,,2025.1.1,59.37427822247842,2025-09-29 15h36.19.162260 +0530,
126,0,126,[np.float64(-0.29833333333333334)],[np.float64(0.29)],[1],[0],[0],[0.9863844000501558],['target'],126,0,126,0,240.14689840003848,,,,,5,240.1312057999894,240.14689840003848,240.14689840003848,0.013916200026869774,241.11772089998703,[np.float64(-0.29833333333333334)],[np.float64(0.29)],[1],[0],[0],[0.9863844000501558],['target'],,3,001,2025-09-29_15h36.13.779,Visual Search_3.0,,2025.1.1,59.37427822247842,2025-09-29 15h36.19.162260 +0530,
127,0,127,[np.float64(0.12)],[np.float64(0.011666666666666667)],[1],[0],[0],[1.4988544000079855],['target'],127,0,127,0,241.14730149996467,,,,,5,241.13423399999738,241.14730149996467,241.14730149996467,0.016326799988746643,242.6331967000151,[np.float64(0.12)],[np.float64(0.011666666666666667)],[1],[0],[0],[1.4988544000079855],['target'],,3,001,2025-09-29_15h36.13.779,Visual Search_3.0,,2025.1.1,59.37427822247842,2025-09-29 15h36.19.162260 +0530,
128,0,128,"[np.float64(-0.09666666666666666), np.float64(-0.08333333333333333)]","[np.float64(-0.23166666666666666), np.float64(-0.19833333333333333)]","[1, 1]","[0, 0]","[0, 0]","[1.210830399999395, 2.177374399965629]","[None, 'target']",128,0,128,0,242.67982940003276,,,,,5,242.65495580004063,242.67982940003276,242.67982940003276,0.021548200049437582,244.8324382000137,"[np.float64(-0.09666666666666666), np.float64(-0.08333333333333333)]","[np.float64(-0.23166666666666666), np.float64(-0.19833333333333333)]","[1, 1]","[0, 0]","[0, 0]","[1.210830399999395, 2.177374399965629]","[None, 'target']",,3,001,2025-09-29_15h36.13.779,Visual Search_3.0,,2025.1.1,59.37427822247842,2025-09-29 15h36.19.162260 +0530,
129,0,129,[np.float64(-0.16833333333333333)],[np.float64(-0.265)],[1],[0],[0],[1.5338696000399068],['target'],129,0,129,0,244.86300270003267,,,,,5,244.8493736999808,244.86300270003267,244.86300270003267,0.016673600068315864,246.38335729995742,[np.float64(-0.16833333333333333)],[np.float64(-0.265)],[1],[0],[0],[1.5338696000399068],['target'],,3,001,2025-09-29_15h36.13.779,Visual Search_3.0,,2025.1.1,59.37427822247842,2025-09-29 15h36.19.162260 +0530,
130,0,130,[np.float64(-0.32166666666666666)],[np.float64(0.21333333333333335)],[1],[0],[0],[2.0467771999537945],['target'],130,0,130,0,246.46342319995165,,,,,10,246.43529030005448,246.46342319995165,246.46342319995165,0.05174799996893853,248.48212349996902,[np.float64(-0.32166666666666666)],[np.float64(0.21333333333333335)],[1],[0],[0],[2.0467771999537945],['target'],,3,001,2025-09-29_15h36.13.779,Visual Search_3.0,,2025.1.1,59.37427822247842,2025-09-29 15h36.19.162260 +0530,
131,0,131,[np.float64(0.285)],[np.float64(-0.355)],[1],[0],[0],[2.2880519999889657],['target'],131,0,131,0,248.52883930003736,,,,,10,248.51017559994943,248.52883930003736,248.52883930003736,0.027850600075908005,250.7983125000028,[np.float64(0.285)],[np.float64(-0.355)],[1],[0],[0],[2.2880519999889657],['target'],,3,001,2025-09-29_15h36.13.779,Visual Search_3.0,,2025.1.1,59.37427822247842,2025-09-29 15h36.19.162260 +0530,
132,0,132,"[np.float64(-0.19166666666666668), np.float64(-0.17166666666666666)]","[np.float64(-0.37333333333333335), np.float64(-0.3383333333333333)]","[1, 1]","[0, 0]","[0, 0]","[1.4314092999557033, 2.3807658000150695]","[None, 'target']",132,0,132,0,250.82876549998764,,,,,5,250.8172698999988,250.82876549998764,250.82876549998764,0.018760499893687665,253.19816629996058,"[np.float64(-0.19166666666666668), np.float64(-0.17166666666666666)]","[np.float64(-0.37333333333333335), np.float64(-0.3383333333333333)]","[1, 1]","[0, 0]","[0, 0]","[1.4314092999557033, 2.3807658000150695]","[None, 'target']",,3,001,2025-09-29_15h36.13.779,Visual Search_3.0,,2025.1.1,59.37427822247842,2025-09-29 15h36.19.162260 +0530,
133,0,133,[np.float64(-0.2633333333333333)],[np.float64(0.11333333333333333)],[1],[0],[0],[1.8818755999673158],['target'],133,0,133,0,253.2288658999605,,,,,5,253.21694399998523,253.2288658999605,253.2288658999605,0.018507700064219534,255.09891479997896,[np.float64(-0.2633333333333333)],[np.float64(0.11333333333333333)],[1],[0],[0],[1.8818755999673158],['target'],,3,001,2025-09-29_15h36.13.779,Visual Search_3.0,,2025.1.1,59.37427822247842,2025-09-29 15h36.19.162260 +0530,
134,0,134,[np.float64(0.14)],[np.float64(-0.09833333333333333)],[1],[0],[0],[1.5942371999844909],['target'],134,0,134,0,255.14462779997848,,,,,10,255.12159989995416,255.14462779997848,255.14462779997848,0.022496200050227344,256.7159126000479,[np.float64(0.14)],[np.float64(-0.09833333333333333)],[1],[0],[0],[1.5942371999844909],['target'],,3,001,2025-09-29_15h36.13.779,Visual Search_3.0,,2025.1.1,59.37427822247842,2025-09-29 15h36.19.162260 +0530,
135,0,135,[np.float64(-0.4583333333333333)],[np.float64(0.405)],[1],[0],[0],[2.8857477999990806],['target'],135,0,135,0,256.778025800013,,,,,10,256.74631720001344,256.778025800013,256.778025800013,0.030164900003001094,259.6321796999546,[np.float64(-0.4583333333333333)],[np.float64(0.405)],[1],[0],[0],[2.8857477999990806],['target'],,3,001,2025-09-29_15h36.13.779,Visual Search_3.0,,2025.1.1,59.37427822247842,2025-09-29 15h36.19.162260 +0530,
136,0,136,[np.float64(0.38333333333333336)],[np.float64(-0.28833333333333333)],[1],[0],[0],[2.773728600004688],['target'],136,0,136,0,259.6774752000347,,,,,10,259.6577530000359,259.6774752000347,259.6774752000347,0.025324099930003285,262.4316200000467,[np.float64(0.38333333333333336)],[np.float64(-0.28833333333333333)],[1],[0],[0],[2.773728600004688],['target'],,3,001,2025-09-29_15h36.13.779,Visual Search_3.0,,2025.1.1,59.37427822247842,2025-09-29 15h36.19.162260 +0530,
137,0,137,[np.float64(0.365)],[np.float64(-0.24833333333333332)],[1],[0],[0],[1.1355259000556543],['target'],137,0,137,0,262.4609791999683,,,,,5,262.4461664999835,262.4609791999683,262.4609791999683,0.01432130008470267,263.5818052999675,[np.float64(0.365)],[np.float64(-0.24833333333333332)],[1],[0],[0],[1.1355259000556543],['target'],,3,001,2025-09-29_15h36.13.779,Visual Search_3.0,,2025.1.1,59.37427822247842,2025-09-29 15h36.19.162260 +0530,
138,0,138,"[np.float64(-0.2816666666666667), np.float64(-0.30333333333333334)]","[np.float64(0.25166666666666665), np.float64(0.25166666666666665)]","[1, 1]","[0, 0]","[0, 0]","[1.7149053000612184, 2.6806043999968097]","[None, 'target']",138,0,138,0,263.6103419000283,,,,,5,263.5992265000241,263.6103419000283,263.6103419000283,0.017174300039187074,266.2799645999912,"[np.float64(-0.2816666666666667), np.float64(-0.30333333333333334)]","[np.float64(0.25166666666666665), np.float64(0.25166666666666665)]","[1, 1]","[0, 0]","[0, 0]","[1.7149053000612184, 2.6806043999968097]","[None, 'target']",,3,001,2025-09-29_15h36.13.779,Visual Search_3.0,,2025.1.1,59.37427822247842,2025-09-29 15h36.19.162260 +0530,
139,0,139,[np.float64(0.12)],[np.float64(-0.20666666666666667)],[1],[0],[0],[1.6071733999997377],['target'],139,0,139,0,266.326442199992,,,,,10,266.30648839997593,266.326442199992,266.326442199992,0.02627360005863011,267.91377029998694,[np.float64(0.12)],[np.float64(-0.20666666666666667)],[1],[0],[0],[1.6071733999997377],['target'],,3,001,2025-09-29_15h36.13.779,Visual Search_3.0,,2025.1.1,59.37427822247842,2025-09-29 15h36.19.162260 +0530,
140,0,140,[np.float64(-0.39166666666666666)],[np.float64(-0.11666666666666667)],[1],[0],[0],[1.5148574999766424],['target'],140,0,140,0,267.94290489994455,,,,,5,267.93072039994877,267.94290489994455,267.94290489994455,0.016674599959515035,269.4456945999991,[np.float64(-0.39166666666666666)],[np.float64(-0.11666666666666667)],[1],[0],[0],[1.5148574999766424],['target'],,3,001,2025-09-29_15h36.13.779,Visual Search_3.0,,2025.1.1,59.37427822247842,2025-09-29 15h36.19.162260 +0530,
141,0,141,[np.float64(-0.3016666666666667)],[np.float64(0.37)],[1],[0],[0],[1.885266299941577],['target'],141,0,141,0,269.4766404000111,,,,,5,269.461831200053,269.4766404000111,269.4766404000111,0.015914799994789064,271.34718339995015,[np.float64(-0.3016666666666667)],[np.float64(0.37)],[1],[0],[0],[1.885266299941577],['target'],,3,001,2025-09-29_15h36.13.779,Visual Search_3.0,,2025.1.1,59.37427822247842,2025-09-29 15h36.19.162260 +0530,
142,0,142,[np.float64(0.37833333333333335)],[np.float64(-0.275)],[1],[0],[0],[1.9909520000219345],['target'],142,0,142,0,271.392736800015,,,,,10,271.3714665999869,271.392736800015,271.392736800015,0.024128599907271564,273.36250080005266,[np.float64(0.37833333333333335)],[np.float64(-0.275)],[1],[0],[0],[1.9909520000219345],['target'],,3,001,2025-09-29_15h36.13.779,Visual Search_3.0,,2025.1.1,59.37427822247842,2025-09-29 15h36.19.162260 +0530,
143,0,143,[np.float64(0.29)],[np.float64(-0.32666666666666666)],[1],[0],[0],[1.189768899930641],['target'],143,0,143,0,273.3927225000225,,,,,5,273.37284620001446,273.3927225000225,273.3927225000225,0.010188699932768941,274.5627292999998,[np.float64(0.29)],[np.float64(-0.32666666666666666)],[1],[0],[0],[1.189768899930641],['target'],,3,001,2025-09-29_15h36.13.779,Visual Search_3.0,,2025.1.1,59.37427822247842,2025-09-29 15h36.19.162260 +0530,
144,0,144,[np.float64(-0.26)],[np.float64(-0.315)],[1],[0],[0],[1.4400023000780493],['target'],144,0,144,0,274.60884909995366,,,,,5,274.5889690000331,274.60884909995366,274.60884909995366,0.02604359993711114,276.0290640000021,[np.float64(-0.26)],[np.float64(-0.315)],[1],[0],[0],[1.4400023000780493],['target'],,3,001,2025-09-29_15h36.13.779,Visual Search_3.0,,2025.1.1,59.37427822247842,2025-09-29 15h36.19.162260 +0530,
145,0,145,[np.float64(0.24666666666666667)],[np.float64(0.41833333333333333)],[1],[0],[0],[3.6361551000736654],['target'],145,0,145,0,276.0754413000541,,,,,10,276.0595841000322,276.0754413000541,276.0754413000541,0.03028250008355826,279.6958382000448,[np.float64(0.24666666666666667)],[np.float64(0.41833333333333333)],[1],[0],[0],[3.6361551000736654],['target'],,3,001,2025-09-29_15h36.13.779,Visual Search_3.0,,2025.1.1,59.37427822247842,2025-09-29 15h36.19.162260 +0530,
146,0,146,[np.float64(0.03166666666666667)],[np.float64(-0.09833333333333333)],[1],[0],[0],[1.5573651999002323],['target'],146,0,146,0,279.7413758999901,,,,,10,279.72129420004785,279.7413758999901,279.7413758999901,0.02519910002592951,281.27876200003084,[np.float64(0.03166666666666667)],[np.float64(-0.09833333333333333)],[1],[0],[0],[1.5573651999002323],['target'],,3,001,2025-09-29_15h36.13.779,Visual Search_3.0,,2025.1.1,59.37427822247842,2025-09-29 15h36.19.162260 +0530,
147,0,147,[np.float64(0.38333333333333336)],[np.float64(0.04666666666666667)],[1],[0],[0],[1.4329296000069007],['target'],147,0,147,0,281.30871210002806,,,,,5,281.2958486999851,281.30871210002806,281.30871210002806,0.016804700018838048,282.72887919994537,[np.float64(0.38333333333333336)],[np.float64(0.04666666666666667)],[1],[0],[0],[1.4329296000069007],['target'],,3,001,2025-09-29_15h36.13.779,Visual Search_3.0,,2025.1.1,59.37427822247842,2025-09-29 15h36.19.162260 +0530,
148,0,148,[np.float64(0.006666666666666667)],[np.float64(-0.19333333333333333)],[1],[0],[0],[1.6579053000314161],['target'],148,0,148,0,282.77465180004947,,,,,10,282.7538121000398,282.77465180004947,282.77465180004947,0.024707800010219216,284.4118225000566,[np.float64(0.006666666666666667)],[np.float64(-0.19333333333333333)],[1],[0],[0],[1.6579053000314161],['target'],,3,001,2025-09-29_15h36.13.779,Visual Search_3.0,,2025.1.1,59.37427822247842,2025-09-29 15h36.19.162260 +0530,
149,0,149,[np.float64(0.2633333333333333)],[np.float64(-0.135)],[1],[0],[0],[1.5676331999711692],['target'],149,0,149,0,284.474923199974,,,,,10,284.44410640001297,284.474923199974,284.474923199974,0.032024400075897574,286.01180400000885,[np.float64(0.2633333333333333)],[np.float64(-0.135)],[1],[0],[0],[1.5676331999711692],['target'],,3,001,2025-09-29_15h36.13.779,Visual Search_3.0,,2025.1.1,59.37427822247842,2025-09-29 15h36.19.162260 +0530,
150,0,150,[np.float64(0.043333333333333335)],[np.float64(0.46166666666666667)],[1],[0],[0],[2.3255316000431776],['target'],150,0,150,0,286.05756800004747,,,,,10,286.03982069995254,286.05756800004747,286.05756800004747,0.027852200088091195,288.3654060000554,[np.float64(0.043333333333333335)],[np.float64(0.46166666666666667)],[1],[0],[0],[2.3255316000431776],['target'],,3,001,2025-09-29_15h36.13.779,Visual Search_3.0,,2025.1.1,59.37427822247842,2025-09-29 15h36.19.162260 +0530,
151,0,151,[np.float64(0.11166666666666666)],[np.float64(0.03833333333333333)],[1],[0],[0],[1.2056975000305101],['target'],151,0,151,0,288.40695850003976,,,,,10,288.3874939000234,288.40695850003976,288.40695850003976,0.02192199998535216,289.5932823000476,[np.float64(0.11166666666666666)],[np.float64(0.03833333333333333)],[1],[0],[0],[1.2056975000305101],['target'],,3,001,2025-09-29_15h36.13.779,Visual Search_3.0,,2025.1.1,59.37427822247842,2025-09-29 15h36.19.162260 +0530,
152,0,152,[np.float64(0.10166666666666667)],[np.float64(-0.43)],[1],[0],[0],[1.4574676000047475],['target'],152,0,152,0,289.6236084999982,,,,,5,289.6039774999954,289.6236084999982,289.6236084999982,0.010518199997022748,291.0615583000472,[np.float64(0.10166666666666667)],[np.float64(-0.43)],[1],[0],[0],[1.4574676000047475],['target'],,3,001,2025-09-29_15h36.13.779,Visual Search_3.0,,2025.1.1,59.37427822247842,2025-09-29 15h36.19.162260 +0530,
153,0,153,[np.float64(-0.48333333333333334)],[np.float64(-0.215)],[1],[0],[0],[2.640371900051832],['target'],153,0,153,0,291.1065708999522,,,,,10,291.0856914999895,291.1065708999522,291.1065708999522,0.02389980002772063,293.7261374000227,[np.float64(-0.48333333333333334)],[np.float64(-0.215)],[1],[0],[0],[2.640371900051832],['target'],,3,001,2025-09-29_15h36.13.779,Visual Search_3.0,,2025.1.1,59.37427822247842,2025-09-29 15h36.19.162260 +0530,
154,0,154,"[np.float64(-0.04), np.float64(-0.008333333333333333)]","[np.float64(-0.185), np.float64(-0.19666666666666666)]","[1, 1]","[0, 0]","[0, 0]","[1.4984839000971988, 2.4815915999934077]","[None, 'target']",154,0,154,0,293.75713269994594,,,,,5,293.74536709999666,293.75713269994594,293.75713269994594,0.019055199925787747,296.22706479998305,"[np.float64(-0.04), np.float64(-0.008333333333333333)]","[np.float64(-0.185), np.float64(-0.19666666666666666)]","[1, 1]","[0, 0]","[0, 0]","[1.4984839000971988, 2.4815915999934077]","[None, 'target']",,3,001,2025-09-29_15h36.13.779,Visual Search_3.0,,2025.1.1,59.37427822247842,2025-09-29 15h36.19.162260 +0530,
155,0,155,[np.float64(0.09333333333333334)],[np.float64(-0.006666666666666667)],[1],[0],[0],[1.3982721000211313],['target'],155,0,155,0,296.29029469995294,,,,,10,296.26144589995965,296.29029469995294,296.29029469995294,0.03412540000863373,297.6598046000581,[np.float64(0.09333333333333334)],[np.float64(-0.006666666666666667)],[1],[0],[0],[1.3982721000211313],['target'],,3,001,2025-09-29_15h36.13.779,Visual Search_3.0,,2025.1.1,59.37427822247842,2025-09-29 15h36.19.162260 +0530,
156,0,156,[np.float64(-0.30666666666666664)],[np.float64(0.36)],[1],[0],[0],[1.8415037000086159],['target'],156,0,156,0,297.7056960000191,,,,,10,297.685467400006,297.7056960000191,297.7056960000191,0.025450599961914122,299.5270653000334,[np.float64(-0.30666666666666664)],[np.float64(0.36)],[1],[0],[0],[1.8415037000086159],['target'],,3,001,2025-09-29_15h36.13.779,Visual Search_3.0,,2025.1.1,59.37427822247842,2025-09-29 15h36.19.162260 +0530,
157,0,157,[np.float64(0.4583333333333333)],[np.float64(-0.36333333333333334)],[1],[0],[0],[2.215690299984999],['target'],157,0,157,0,299.55554690002464,,,,,5,299.5429965000367,299.55554690002464,299.55554690002464,0.015671200002543628,301.7587941000238,[np.float64(0.4583333333333333)],[np.float64(-0.36333333333333334)],[1],[0],[0],[2.215690299984999],['target'],,3,001,2025-09-29_15h36.13.779,Visual Search_3.0,,2025.1.1,59.37427822247842,2025-09-29 15h36.19.162260 +0530,
158,0,158,[np.float64(-0.09333333333333334)],[np.float64(0.018333333333333333)],[1],[0],[0],[1.517091799993068],['target'],158,0,158,0,301.7891931999475,,,,,5,301.775214400026,301.7891931999475,301.7891931999475,0.016190099995583296,303.2924077999778,[np.float64(-0.09333333333333334)],[np.float64(0.018333333333333333)],[1],[0],[0],[1.517091799993068],['target'],,3,001,2025-09-29_15h36.13.779,Visual Search_3.0,,2025.1.1,59.37427822247842,2025-09-29 15h36.19.162260 +0530,
159,0,159,[np.float64(-0.2866666666666667)],[np.float64(-0.4483333333333333)],[1],[0],[0],[2.396567500079982],['target'],159,0,159,0,303.35556329996325,,,,,10,303.3285515999887,303.35556329996325,303.35556329996325,0.0359525999519974,305.72517560003325,[np.float64(-0.2866666666666667)],[np.float64(-0.4483333333333333)],[1],[0],[0],[2.396567500079982],['target'],,3,001,2025-09-29_15h36.13.779,Visual Search_3.0,,2025.1.1,59.37427822247842,2025-09-29 15h36.19.162260 +0530,
160,0,160,[np.float64(-0.09)],[np.float64(0.41833333333333333)],[1],[0],[0],[2.154631800018251],['target'],160,0,160,0,305.77160330000333,,,,,10,305.7524280999787,305.77160330000333,305.77160330000333,0.027086999965831637,307.90711499995086,[np.float64(-0.09)],[np.float64(0.41833333333333333)],[1],[0],[0],[2.154631800018251],['target'],,3,001,2025-09-29_15h36.13.779,Visual Search_3.0,,2025.1.1,59.37427822247842,2025-09-29 15h36.19.162260 +0530,
161,0,161,[np.float64(-0.48)],[np.float64(0.23333333333333334)],[1],[0],[0],[2.228611099999398],['target'],161,0,161,0,307.9549686999526,,,,,10,307.9288450999884,307.9549686999526,307.9549686999526,0.021492000087164342,310.1575295999646,[np.float64(-0.48)],[np.float64(0.23333333333333334)],[1],[0],[0],[2.228611099999398],['target'],,3,001,2025-09-29_15h36.13.779,Visual Search_3.0,,2025.1.1,59.37427822247842,2025-09-29 15h36.19.162260 +0530,
162,0,162,[np.float64(0.31166666666666665)],[np.float64(-0.4816666666666667)],[1],[0],[0],[2.3066420999821275],['target'],162,0,162,0,310.18807140004355,,,,,5,310.1680854000151,310.18807140004355,310.18807140004355,0.010360100073739886,312.47485580004286,[np.float64(0.31166666666666665)],[np.float64(-0.4816666666666667)],[1],[0],[0],[2.3066420999821275],['target'],,3,001,2025-09-29_15h36.13.779,Visual Search_3.0,,2025.1.1,59.37427822247842,2025-09-29 15h36.19.162260 +0530,
163,0,163,[np.float64(0.11333333333333333)],[np.float64(-0.455)],[1],[0],[0],[1.3308256000746042],['target'],163,0,163,0,312.52106539998204,,,,,5,312.49309749994427,312.52106539998204,312.52106539998204,0.018025500001385808,313.8240156000247,[np.float64(0.11333333333333333)],[np.float64(-0.455)],[1],[0],[0],[1.3308256000746042],['target'],,3,001,2025-09-29_15h36.13.779,Visual Search_3.0,,2025.1.1,59.37427822247842,2025-09-29 15h36.19.162260 +0530,
164,0,164,[np.float64(0.24666666666666667)],[np.float64(-0.09166666666666666)],[1],[0],[0],[1.9514903998933733],['target'],164,0,164,0,313.8544508999912,,,,,5,313.839605199988,313.8544508999912,313.8544508999912,0.015387500054202974,315.7911977999611,[np.float64(0.24666666666666667)],[np.float64(-0.09166666666666666)],[1],[0],[0],[1.9514903998933733],['target'],,3,001,2025-09-29_15h36.13.779,Visual Search_3.0,,2025.1.1,59.37427822247842,2025-09-29 15h36.19.162260 +0530,
165,0,165,[np.float64(-0.11)],[np.float64(-0.17)],[1],[0],[0],[1.6157748999539763],['target'],165,0,165,0,315.8204646999948,,,,,5,315.8088339000242,315.8204646999948,315.8204646999948,0.017416900023818016,317.4246951000532,[np.float64(-0.11)],[np.float64(-0.17)],[1],[0],[0],[1.6157748999539763],['target'],,3,001,2025-09-29_15h36.13.779,Visual Search_3.0,,2025.1.1,59.37427822247842,2025-09-29 15h36.19.162260 +0530,
166,0,166,[np.float64(0.35833333333333334)],[np.float64(0.06833333333333333)],[1],[0],[0],[1.7174733000574633],['target'],166,0,166,0,317.45377609995194,,,,,5,317.4391935999738,317.45377609995194,317.45377609995194,0.014324799994938076,319.1567902000388,[np.float64(0.35833333333333334)],[np.float64(0.06833333333333333)],[1],[0],[0],[1.7174733000574633],['target'],,3,001,2025-09-29_15h36.13.779,Visual Search_3.0,,2025.1.1,59.37427822247842,2025-09-29 15h36.19.162260 +0530,
167,0,167,[np.float64(0.3433333333333333)],[np.float64(0.4033333333333333)],[1],[0],[0],[2.5870517999865115],['target'],167,0,167,0,319.203395599965,,,,,10,319.18641089997254,319.203395599965,319.203395599965,0.029407799942418933,321.773587499978,[np.float64(0.3433333333333333)],[np.float64(0.4033333333333333)],[1],[0],[0],[2.5870517999865115],['target'],,3,001,2025-09-29_15h36.13.779,Visual Search_3.0,,2025.1.1,59.37427822247842,2025-09-29 15h36.19.162260 +0530,
168,0,168,[np.float64(-0.3333333333333333)],[np.float64(0.085)],[1],[0],[0],[1.685482900007628],['target'],168,0,168,0,321.80326019995846,,,,,5,321.78799330000766,321.80326019995846,321.80326019995846,0.014168400084599853,323.4735993000213,[np.float64(-0.3333333333333333)],[np.float64(0.085)],[1],[0],[0],[1.685482900007628],['target'],,3,001,2025-09-29_15h36.13.779,Visual Search_3.0,,2025.1.1,59.37427822247842,2025-09-29 15h36.19.162260 +0530,
169,0,169,[np.float64(-0.15666666666666668)],[np.float64(-0.3433333333333333)],[1],[0],[0],[2.033371699973941],['target'],169,0,169,0,323.50293770001736,,,,,5,323.4894622999709,323.50293770001736,323.50293770001736,0.015643800026737154,325.52295719995163,[np.float64(-0.15666666666666668)],[np.float64(-0.3433333333333333)],[1],[0],[0],[2.033371699973941],['target'],,3,001,2025-09-29_15h36.13.779,Visual Search_3.0,,2025.1.1,59.37427822247842,2025-09-29 15h36.19.162260 +0530,
170,0,170,[np.float64(0.1)],[np.float64(-0.0016666666666666668)],[1],[0],[0],[1.3373359999386594],['target'],170,0,170,0,325.58602070005145,,,,,10,325.5515043999767,325.58602070005145,325.58602070005145,0.028339099953882396,326.88893390004523,[np.float64(0.1)],[np.float64(-0.0016666666666666668)],[1],[0],[0],[1.3373359999386594],['target'],,3,001,2025-09-29_15h36.13.779,Visual Search_3.0,,2025.1.1,59.37427822247842,2025-09-29 15h36.19.162260 +0530,
171,0,171,[np.float64(-0.18)],[np.float64(0.3016666666666667)],[1],[0],[0],[1.844780300045386],['target'],171,0,171,0,326.95216480002273,,,,,10,326.92832469998393,326.95216480002273,326.95216480002273,0.039166999980807304,328.7731677000411,[np.float64(-0.18)],[np.float64(0.3016666666666667)],[1],[0],[0],[1.844780300045386],['target'],,3,001,2025-09-29_15h36.13.779,Visual Search_3.0,,2025.1.1,59.37427822247842,2025-09-29 15h36.19.162260 +0530,
172,0,172,"[np.float64(-0.14), np.float64(-0.16)]","[np.float64(0.0033333333333333335), np.float64(0.018333333333333333)]","[1, 1]","[0, 0]","[0, 0]","[1.4851009000558406, 2.6177794999675825]","[None, 'target']",172,0,172,0,328.83563540002797,,,,,10,328.80324290005956,328.83563540002797,328.83563540002797,0.029894100036472082,331.4211019000504,"[np.float64(-0.14), np.float64(-0.16)]","[np.float64(0.0033333333333333335), np.float64(0.018333333333333333)]","[1, 1]","[0, 0]","[0, 0]","[1.4851009000558406, 2.6177794999675825]","[None, 'target']",,3,001,2025-09-29_15h36.13.779,Visual Search_3.0,,2025.1.1,59.37427822247842,2025-09-29 15h36.19.162260 +0530,
173,0,173,[np.float64(0.018333333333333333)],[np.float64(0.13333333333333333)],[1],[0],[0],[1.5935321999713778],['target'],173,0,173,0,331.4681209999835,,,,,10,331.4445763999829,331.4681209999835,331.4681209999835,0.023210400016978383,333.03821839997545,[np.float64(0.018333333333333333)],[np.float64(0.13333333333333333)],[1],[0],[0],[1.5935321999713778],['target'],,3,001,2025-09-29_15h36.13.779,Visual Search_3.0,,2025.1.1,59.37427822247842,2025-09-29 15h36.19.162260 +0530,
174,0,174,[np.float64(0.22833333333333333)],[np.float64(0.22666666666666666)],[1],[0],[0],[1.8547016000375152],['target'],174,0,174,0,333.0851605000207,,,,,10,333.0663568000309,333.0851605000207,333.0851605000207,0.027879299945198,334.92110030003823,[np.float64(0.22833333333333333)],[np.float64(0.22666666666666666)],[1],[0],[0],[1.8547016000375152],['target'],,3,001,2025-09-29_15h36.13.779,Visual Search_3.0,,2025.1.1,59.37427822247842,2025-09-29 15h36.19.162260 +0530,
175,0,175,[np.float64(0.08)],[np.float64(0.375)],[1],[0],[0],[1.5235649000387639],['target'],175,0,175,0,334.9518346999539,,,,,5,334.9317018999718,334.9518346999539,334.9518346999539,0.010395199991762638,336.4553633000469,[np.float64(0.08)],[np.float64(0.375)],[1],[0],[0],[1.5235649000387639],['target'],,3,001,2025-09-29_15h36.13.779,Visual Search_3.0,,2025.1.1,59.37427822247842,2025-09-29 15h36.19.162260 +0530,
176,0,176,[np.float64(0.08166666666666667)],[np.float64(-0.435)],[1],[0],[0],[3.224777900031768],['target'],176,0,176,0,336.5006908000214,,,,,10,336.47862209996674,336.5006908000214,336.5006908000214,0.023070700000971556,339.7035253000213,[np.float64(0.08166666666666667)],[np.float64(-0.435)],[1],[0],[0],[3.224777900031768],['target'],,3,001,2025-09-29_15h36.13.779,Visual Search_3.0,,2025.1.1,59.37427822247842,2025-09-29 15h36.19.162260 +0530,
177,0,177,[np.float64(0.4533333333333333)],[np.float64(-0.12333333333333334)],[1],[0],[0],[1.7193576000863686],['target'],177,0,177,0,339.73405870003626,,,,,5,339.717973300023,339.73405870003626,339.73405870003626,0.014236400020308793,341.4373975000344,[np.float64(0.4533333333333333)],[np.float64(-0.12333333333333334)],[1],[0],[0],[1.7193576000863686],['target'],,3,001,2025-09-29_15h36.13.779,Visual Search_3.0,,2025.1.1,59.37427822247842,2025-09-29 15h36.19.162260 +0530,
178,0,178,[np.float64(-0.09166666666666666)],[np.float64(0.08333333333333333)],[1],[0],[0],[1.8890192999970168],['target'],178,0,178,0,341.4837799000088,,,,,10,341.46368579997215,341.4837799000088,341.4837799000088,0.026149300043471158,343.3527570000151,[np.float64(-0.09166666666666666)],[np.float64(0.08333333333333333)],[1],[0],[0],[1.8890192999970168],['target'],,3,001,2025-09-29_15h36.13.779,Visual Search_3.0,,2025.1.1,59.37427822247842,2025-09-29 15h36.19.162260 +0530,
179,0,179,[np.float64(0.15666666666666668)],[np.float64(0.25166666666666665)],[1],[0],[0],[1.690016599954106],['target'],179,0,179,0,343.38381719996687,,,,,5,343.36422520002816,343.38381719996687,343.38381719996687,0.011281500104814768,345.0543230000185,[np.float64(0.15666666666666668)],[np.float64(0.25166666666666665)],[1],[0],[0],[1.690016599954106],['target'],,3,001,2025-09-29_15h36.13.779,Visual Search_3.0,,2025.1.1,59.37427822247842,2025-09-29 15h36.19.162260 +0530,
180,0,180,[np.float64(-0.23333333333333334)],[np.float64(-0.085)],[1],[0],[0],[1.8383607000578195],['target'],180,0,180,0,345.1009148999583,,,,,5,345.0817100000568,345.1009148999583,345.1009148999583,0.02720829995814711,346.9201430999674,[np.float64(-0.23333333333333334)],[np.float64(-0.085)],[1],[0],[0],[1.8383607000578195],['target'],,3,001,2025-09-29_15h36.13.779,Visual Search_3.0,,2025.1.1,59.37427822247842,2025-09-29 15h36.19.162260 +0530,
181,0,181,[np.float64(-0.31333333333333335)],[np.float64(0.39166666666666666)],[1],[0],[0],[2.663947500055656],['target'],181,0,181,0,346.98310059995856,,,,,10,346.9549875999801,346.98310059995856,346.98310059995856,0.03464249998796731,349.61905019998085,[np.float64(-0.31333333333333335)],[np.float64(0.39166666666666666)],[1],[0],[0],[2.663947500055656],['target'],,3,001,2025-09-29_15h36.13.779,Visual Search_3.0,,2025.1.1,59.37427822247842,2025-09-29 15h36.19.162260 +0530,
182,0,182,[np.float64(0.3466666666666667)],[np.float64(-0.11166666666666666)],[1],[0],[0],[1.8364413999952376],['target'],182,0,182,0,349.6497349999845,,,,,5,349.6344149999786,349.6497349999845,349.6497349999845,0.01509889995213598,351.47094280004967,[np.float64(0.3466666666666667)],[np.float64(-0.11166666666666666)],[1],[0],[0],[1.8364413999952376],['target'],,3,001,2025-09-29_15h36.13.779,Visual Search_3.0,,2025.1.1,59.37427822247842,2025-09-29 15h36.19.162260 +0530,
183,0,183,"[np.float64(-0.15166666666666667), np.float64(-0.165)]","[np.float64(-0.46166666666666667), np.float64(-0.46166666666666667)]","[1, 1]","[0, 0]","[0, 0]","[1.6981985999736935, 3.09791310003493]","[None, 'target']",183,0,183,0,351.49944459996186,,,,,5,351.48699759994633,351.49944459996186,351.49944459996186,0.015876600053161383,354.5849829999497,"[np.float64(-0.15166666666666667), np.float64(-0.165)]","[np.float64(-0.46166666666666667), np.float64(-0.46166666666666667)]","[1, 1]","[0, 0]","[0, 0]","[1.6981985999736935, 3.09791310003493]","[None, 'target']",,3,001,2025-09-29_15h36.13.779,Visual Search_3.0,,2025.1.1,59.37427822247842,2025-09-29 15h36.19.162260 +0530,
184,0,184,[np.float64(-0.36333333333333334)],[np.float64(-0.011666666666666667)],[1],[0],[0],[1.819795300019905],['target'],184,0,184,0,354.6151092000073,,,,,5,354.60063620004803,354.6151092000073,354.6151092000073,0.015456499997526407,356.42052609997336,[np.float64(-0.36333333333333334)],[np.float64(-0.011666666666666667)],[1],[0],[0],[1.819795300019905],['target'],,3,001,2025-09-29_15h36.13.779,Visual Search_3.0,,2025.1.1,59.37427822247842,2025-09-29 15h36.19.162260 +0530,
185,0,185,[np.float64(0.22833333333333333)],[np.float64(0.47333333333333333)],[1],[0],[0],[2.9450511001050472],['target'],185,0,185,0,356.48188069998287,,,,,10,356.4553240999812,356.48188069998287,356.48188069998287,0.03460749995429069,359.4004529999802,[np.float64(0.22833333333333333)],[np.float64(0.47333333333333333)],[1],[0],[0],[2.9450511001050472],['target'],,3,001,2025-09-29_15h36.13.779,Visual Search_3.0,,2025.1.1,59.37427822247842,2025-09-29 15h36.19.162260 +0530,
186,0,186,[np.float64(-0.07166666666666667)],[np.float64(0.12)],[1],[0],[0],[1.4896455999696627],['target'],186,0,186,0,359.4317052999977,,,,,5,359.4125564000569,359.4317052999977,359.4317052999977,0.011866400018334389,360.90228899999056,[np.float64(-0.07166666666666667)],[np.float64(0.12)],[1],[0],[0],[1.4896455999696627],['target'],,3,001,2025-09-29_15h36.13.779,Visual Search_3.0,,2025.1.1,59.37427822247842,2025-09-29 15h36.19.162260 +0530,
187,0,187,[np.float64(-0.4216666666666667)],[np.float64(0.4816666666666667)],[1],[0],[0],[2.4718967999797314],['target'],187,0,187,0,360.94853609998245,,,,,5,360.9289149000542,360.94853609998245,360.94853609998245,0.02644510008394718,363.40089779999107,[np.float64(-0.4216666666666667)],[np.float64(0.4816666666666667)],[1],[0],[0],[2.4718967999797314],['target'],,3,001,2025-09-29_15h36.13.779,Visual Search_3.0,,2025.1.1,59.37427822247842,2025-09-29 15h36.19.162260 +0530,
188,0,188,"[np.float64(0.13), np.float64(0.15166666666666667)]","[np.float64(-0.4116666666666667), np.float64(-0.42333333333333334)]","[1, 1]","[0, 0]","[0, 0]","[2.1994509999640286, 3.347860199981369]","[None, 'target']",188,0,188,0,363.4313129000366,,,,,5,363.4189142000396,363.4313129000366,363.4313129000366,0.0177774999756366,366.7668924999889,"[np.float64(0.13), np.float64(0.15166666666666667)]","[np.float64(-0.4116666666666667), np.float64(-0.42333333333333334)]","[1, 1]","[0, 0]","[0, 0]","[2.1994509999640286, 3.347860199981369]","[None, 'target']",,3,001,2025-09-29_15h36.13.779,Visual Search_3.0,,2025.1.1,59.37427822247842,2025-09-29 15h36.19.162260 +0530,
189,0,189,"[np.float64(-0.06833333333333333), np.float64(-0.04666666666666667)]","[np.float64(-0.215), np.float64(-0.19333333333333333)]","[1, 1]","[0, 0]","[0, 0]","[1.7177564000012353, 2.7159922000719234]","[None, 'target']",189,0,189,0,366.8309454000555,,,,,10,366.7996009000344,366.8309454000555,366.8309454000555,0.03245119994971901,369.51570510002784,"[np.float64(-0.06833333333333333), np.float64(-0.04666666666666667)]","[np.float64(-0.215), np.float64(-0.19333333333333333)]","[1, 1]","[0, 0]","[0, 0]","[1.7177564000012353, 2.7159922000719234]","[None, 'target']",,3,001,2025-09-29_15h36.13.779,Visual Search_3.0,,2025.1.1,59.37427822247842,2025-09-29 15h36.19.162260 +0530,
190,0,190,[np.float64(0.4716666666666667)],[np.float64(-0.03)],[1],[0],[0],[1.604838200029917],['target'],190,0,190,0,369.54753720003646,,,,,5,369.52967029996216,369.54753720003646,369.54753720003646,0.013723100069910288,371.1345432000235,[np.float64(0.4716666666666667)],[np.float64(-0.03)],[1],[0],[0],[1.604838200029917],['target'],,3,001,2025-09-29_15h36.13.779,Visual Search_3.0,,2025.1.1,59.37427822247842,2025-09-29 15h36.19.162260 +0530,
191,0,191,[np.float64(0.40166666666666667)],[np.float64(-0.35)],[1],[0],[0],[1.4513452000683174],['target'],191,0,191,0,371.1633001000155,,,,,5,371.14921900001355,371.1633001000155,371.1633001000155,0.014526100014336407,372.60066620004363,[np.float64(0.40166666666666667)],[np.float64(-0.35)],[1],[0],[0],[1.4513452000683174],['target'],,3,001,2025-09-29_15h36.13.779,Visual Search_3.0,,2025.1.1,59.37427822247842,2025-09-29 15h36.19.162260 +0530,
192,0,192,[np.float64(-0.1)],[np.float64(0.15833333333333333)],[1],[0],[0],[1.4842065999982879],['target'],192,0,192,0,372.6302411999786,,,,,5,372.61594389996026,372.6302411999786,372.6302411999786,0.015031500020995736,374.10025040002074,[np.float64(-0.1)],[np.float64(0.15833333333333333)],[1],[0],[0],[1.4842065999982879],['target'],,3,001,2025-09-29_15h36.13.779,Visual Search_3.0,,2025.1.1,59.37427822247842,2025-09-29 15h36.19.162260 +0530,
193,0,193,[np.float64(0.3416666666666667)],[np.float64(0.39666666666666667)],[1],[0],[0],[1.737636800040491],['target'],193,0,193,0,374.1462136999471,,,,,10,374.1289661000483,374.1462136999471,374.1462136999471,0.028513099998235703,375.86672169994563,[np.float64(0.3416666666666667)],[np.float64(0.39666666666666667)],[1],[0],[0],[1.737636800040491],['target'],,3,001,2025-09-29_15h36.13.779,Visual Search_3.0,,2025.1.1,59.37427822247842,2025-09-29 15h36.19.162260 +0530,
194,0,194,[np.float64(0.22333333333333333)],[np.float64(-0.011666666666666667)],[1],[0],[0],[1.5652516999980435],['target'],194,0,194,0,375.8963617000263,,,,,5,375.88379160000477,375.8963617000263,375.8963617000263,0.016792100039310753,377.4491525000194,[np.float64(0.22333333333333333)],[np.float64(-0.011666666666666667)],[1],[0],[0],[1.5652516999980435],['target'],,3,001,2025-09-29_15h36.13.779,Visual Search_3.0,,2025.1.1,59.37427822247842,2025-09-29 15h36.19.162260 +0530,
195,0,195,"[np.float64(-0.465), np.float64(-0.465), np.float64(-0.465), np.float64(-0.43666666666666665)]","[np.float64(-0.09333333333333334), np.float64(-0.09333333333333334), np.float64(-0.09333333333333334), np.float64(-0.08)]","[1, 1, 1, 1]","[0, 0, 0, 0]","[0, 0, 0, 0]","[1.6016749000409618, 2.232671699952334, 2.5852951999986544, 3.3838784999679774]","[None, None, None, 'target']",195,0,195,0,377.4960924000479,,,,,10,377.4814787999494,377.4960924000479,377.4960924000479,0.03215939993970096,380.8654382999521,"[np.float64(-0.465), np.float64(-0.465), np.float64(-0.465), np.float64(-0.43666666666666665)]","[np.float64(-0.09333333333333334), np.float64(-0.09333333333333334), np.float64(-0.09333333333333334), np.float64(-0.08)]","[1, 1, 1, 1]","[0, 0, 0, 0]","[0, 0, 0, 0]","[1.6016749000409618, 2.232671699952334, 2.5852951999986544, 3.3838784999679774]","[None, None, None, 'target']",,3,001,2025-09-29_15h36.13.779,Visual Search_3.0,,2025.1.1,59.37427822247842,2025-09-29 15h36.19.162260 +0530,
196,0,196,[np.float64(0.45)],[np.float64(-0.39)],[1],[0],[0],[1.3591331999050453],['target'],196,0,196,0,380.9123273000587,,,,,10,380.88916260004044,380.9123273000587,380.9123273000587,0.02338130003772676,382.24841440003365,[np.float64(0.45)],[np.float64(-0.39)],[1],[0],[0],[1.3591331999050453],['target'],,3,001,2025-09-29_15h36.13.779,Visual Search_3.0,,2025.1.1,59.37427822247842,2025-09-29 15h36.19.162260 +0530,
197,0,197,[np.float64(-0.3416666666666667)],[np.float64(0.335)],[1],[0],[0],[1.7357866999227554],['target'],197,0,197,0,382.27809030003846,,,,,5,382.26351059996523,382.27809030003846,382.27809030003846,0.014841399970464408,383.9994104000507,[np.float64(-0.3416666666666667)],[np.float64(0.335)],[1],[0],[0],[1.7357866999227554],['target'],,3,001,2025-09-29_15h36.13.779,Visual Search_3.0,,2025.1.1,59.37427822247842,2025-09-29 15h36.19.162260 +0530,
198,0,198,[np.float64(0.175)],[np.float64(0.4033333333333333)],[1],[0],[0],[1.5890252999961376],['target'],198,0,198,0,384.044821199961,,,,,10,384.0258935999591,384.044821199961,384.044821199961,0.026277600089088082,385.6149930000538,[np.float64(0.175)],[np.float64(0.4033333333333333)],[1],[0],[0],[1.5890252999961376],['target'],,3,001,2025-09-29_15h36.13.779,Visual Search_3.0,,2025.1.1,59.37427822247842,2025-09-29 15h36.19.162260 +0530,
199,0,199,[np.float64(-0.12666666666666668)],[np.float64(-0.035)],[1],[0],[0],[1.6551485999953002],['target'],199,0,199,0,385.6615912000416,,,,,10,385.6440262000542,385.6615912000416,385.6615912000416,0.028862700099125504,387.299251700053,[np.float64(-0.12666666666666668)],[np.float64(-0.035)],[1],[0],[0],[1.6551485999953002],['target'],,3,001,2025-09-29_15h36.13.779,Visual Search_3.0,,2025.1.1,59.37427822247842,2025-09-29 15h36.19.162260 +0530,
,,,,,,,,,,,,,,,,,,,,,,,,,,,,,,,,387.2995633999817,,,,,,,,,
