word,colour,stimulus_condition,correct_response,thisN,thisTrialN,thisRepN,key_resp.keys,key_resp.corr,key_resp.rt,key_resp.duration,trials.thisRepN,trials.thisTrialN,trials.thisN,trials.thisIndex,thisRow.t,notes,ins.started,text_2.started,ins.stopped,trial.started,Fixation.started,Fixation.stopped,text.started,key_resp.started,text.stopped,trial.stopped,trials.key_resp.keys,trials.key_resp.corr,trials.key_resp.rt,trials.key_resp.duration,Thank_you.started,text_3.started,text_3.stopped,Thank_you.stopped,participant,session,date,expName,expVersion,psychopyVersion,frameRate,expStart,
,,,,,,,,,,,,,,,,,0.003130899975076318,0.006953699979931116,1.002611199975945,,,,,,,,,,,,,,,,141332,001,2025-08-24_14h32.53.254,Stroop Task,,2025.1.1,60.00204007092619,2025-08-24 14h32.59.966195 +0530,
RED,red,C,r,0,0,0,r,1,5.079072799999267,None,0,0,0,0,1.0378646000172012,,,,,1.026417399989441,1.0378646000172012,1.5027297000051476,1.5027297000051476,1.5027297000051476,6.0014824999962,6.5948858999763615,r,1,5.079072799999267,None,,,,,141332,001,2025-08-24_14h32.53.254,Stroop Task,,2025.1.1,60.00204007092619,2025-08-24 14h32.59.966195 +0530,
BLUE,red,I,r,1,1,0,b,0,1.360897800012026,None,0,1,1,2,6.616674299992155,,,,,6.607863100012764,6.616674299992155,7.101588500023354,7.101588500023354,7.101588500023354,,8.468908899987582,b,0,1.360897800012026,None,,,,,141332,001,2025-08-24_14h32.53.254,Stroop Task,,2025.1.1,60.00204007092619,2025-08-24 14h32.59.966195 +0530,
BLUE,blue,C,b,2,2,0,b,1,0.5798327000229619,None,0,2,2,3,8.487070399976801,,,,,8.469844100007322,8.487070399976801,8.967971300007775,8.967971300007775,8.967971300007775,,9.551720199990086,b,1,0.5798327000229619,None,,,,,141332,001,2025-08-24_14h32.53.254,Stroop Task,,2025.1.1,60.00204007092619,2025-08-24 14h32.59.966195 +0530,
RED,blue,I,b,3,3,0,r,0,0.5492094000219367,None,0,3,3,1,9.570794500003103,,,,,9.555613300006371,9.570794500003103,10.050551699998323,10.050551699998323,10.050551699998323,,10.60149219998857,r,0,0.5492094000219367,None,,,,,141332,001,2025-08-24_14h32.53.254,Stroop Task,,2025.1.1,60.00204007092619,2025-08-24 14h32.59.966195 +0530,
RED,blue,I,b,4,0,1,r,0,0.6587654000031762,None,1,0,4,1,10.62013900000602,,,,,10.602305300009903,10.62013900000602,11.10090100002708,11.10090100002708,11.10090100002708,,11.768363800016232,r,0,0.6587654000031762,None,,,,,141332,001,2025-08-24_14h32.53.254,Stroop Task,,2025.1.1,60.00204007092619,2025-08-24 14h32.59.966195 +0530,
BLUE,blue,C,b,5,1,1,b,1,0.46733080002013594,None,1,1,5,3,11.786268000025302,,,,,11.772165899979882,11.786268000025302,12.26754750002874,12.26754750002874,12.26754750002874,,12.75142370001413,b,1,0.46733080002013594,None,,,,,141332,001,2025-08-24_14h32.53.254,Stroop Task,,2025.1.1,60.00204007092619,2025-08-24 14h32.59.966195 +0530,
BLUE,red,I,r,6,2,1,r,1,0.6754517999943346,None,1,2,6,2,12.7701434000046,,,,,12.752289600030053,12.7701434000046,13.250826600007713,13.250826600007713,13.250826600007713,,13.935327199986205,r,1,0.6754517999943346,None,,,,,141332,001,2025-08-24_14h32.53.254,Stroop Task,,2025.1.1,60.00204007092619,2025-08-24 14h32.59.966195 +0530,
RED,red,C,r,7,3,1,r,1,0.6572827000054531,None,1,3,7,0,13.95321900001727,,,,,13.93931759998668,13.95321900001727,14.43424520001281,14.43424520001281,14.43424520001281,,15.101774399983697,r,1,0.6572827000054531,None,,,,,141332,001,2025-08-24_14h32.53.254,Stroop Task,,2025.1.1,60.00204007092619,2025-08-24 14h32.59.966195 +0530,
BLUE,red,I,r,8,0,2,r,1,1.0923706999747083,None,2,0,8,2,15.120000599999912,,,,,15.105749599984847,15.120000599999912,15.60050240001874,15.60050240001874,15.60050240001874,,16.700872000015806,r,1,1.0923706999747083,None,,,,,141332,001,2025-08-24_14h32.53.254,Stroop Task,,2025.1.1,60.00204007092619,2025-08-24 14h32.59.966195 +0530,
RED,blue,I,b,9,1,2,b,1,0.42359269998269156,None,2,1,9,1,16.719575900002383,,,,,16.705111299990676,16.719575900002383,17.200326499994844,17.200326499994844,17.200326499994844,,17.634745899995323,b,1,0.42359269998269156,None,,,,,141332,001,2025-08-24_14h32.53.254,Stroop Task,,2025.1.1,60.00204007092619,2025-08-24 14h32.59.966195 +0530,
BLUE,blue,C,b,10,2,2,b,1,0.4105429000337608,None,2,2,10,3,17.652687299996614,,,,,17.638541400025133,17.652687299996614,18.133935099991504,18.133935099991504,18.133935099991504,,18.55145299999276,b,1,0.4105429000337608,None,,,,,141332,001,2025-08-24_14h32.53.254,Stroop Task,,2025.1.1,60.00204007092619,2025-08-24 14h32.59.966195 +0530,
RED,red,C,r,11,3,2,r,1,0.4945738999522291,None,2,3,11,0,18.570610299997497,,,,,18.555210700025782,18.570610299997497,19.05021419998957,19.05021419998957,19.05021419998957,,19.55092180002248,r,1,0.4945738999522291,None,,,,,141332,001,2025-08-24_14h32.53.254,Stroop Task,,2025.1.1,60.00204007092619,2025-08-24 14h32.59.966195 +0530,
RED,blue,I,b,12,0,3,b,1,0.5154413999989629,None,3,0,12,1,19.569392499979585,,,,,19.55175889999373,19.569392499979585,20.04979080002522,20.04979080002522,20.04979080002522,,20.567662000015844,b,1,0.5154413999989629,None,,,,,141332,001,2025-08-24_14h32.53.254,Stroop Task,,2025.1.1,60.00204007092619,2025-08-24 14h32.59.966195 +0530,
BLUE,red,I,r,13,1,3,r,1,0.6883778999908827,None,3,1,13,2,20.585745299991686,,,,,20.57153770001605,20.585745299991686,21.06687660003081,21.06687660003081,21.06687660003081,,21.767520699999295,r,1,0.6883778999908827,None,,,,,141332,001,2025-08-24_14h32.53.254,Stroop Task,,2025.1.1,60.00204007092619,2025-08-24 14h32.59.966195 +0530,
RED,red,C,r,14,2,3,r,1,0.45951989997411147,None,3,2,14,0,21.78571580001153,,,,,21.77153139997972,21.78571580001153,22.266234799986705,22.266234799986705,22.266234799986705,,22.73359530000016,r,1,0.45951989997411147,None,,,,,141332,001,2025-08-24_14h32.53.254,Stroop Task,,2025.1.1,60.00204007092619,2025-08-24 14h32.59.966195 +0530,
BLUE,blue,C,b,15,3,3,r,0,0.23964770004386082,None,3,3,15,3,22.75216839998029,,,,,22.737351800024044,22.75216839998029,23.233151599997655,23.233151599997655,23.233151599997655,,23.48364109999966,r,0,0.23964770004386082,None,,,,,141332,001,2025-08-24_14h32.53.254,Stroop Task,,2025.1.1,60.00204007092619,2025-08-24 14h32.59.966195 +0530,
BLUE,blue,C,b,16,0,4,b,1,0.5442902999930084,None,4,0,16,3,23.50217849999899,,,,,23.484469200018793,23.50217849999899,23.983071900031064,23.983071900031064,23.983071900031064,,24.533486899978016,b,1,0.5442902999930084,None,,,,,141332,001,2025-08-24_14h32.53.254,Stroop Task,,2025.1.1,60.00204007092619,2025-08-24 14h32.59.966195 +0530,
RED,blue,I,b,17,1,4,b,1,1.4007296999916434,None,4,1,17,1,24.5518352999934,,,,,24.53738470003009,24.5518352999934,25.032755599997472,25.032755599997472,25.032755599997472,,26.44979990000138,b,1,1.4007296999916434,None,,,,,141332,001,2025-08-24_14h32.53.254,Stroop Task,,2025.1.1,60.00204007092619,2025-08-24 14h32.59.966195 +0530,
RED,red,C,r,18,2,4,r,1,0.48442370002157986,None,4,2,18,0,26.468866500013974,,,,,26.45065309997881,26.468866500013974,26.949267700023483,26.949267700023483,26.949267700023483,,27.449780000024475,r,1,0.48442370002157986,None,,,,,141332,001,2025-08-24_14h32.53.254,Stroop Task,,2025.1.1,60.00204007092619,2025-08-24 14h32.59.966195 +0530,
BLUE,red,I,r,19,3,4,r,1,0.791616200003773,None,4,3,19,2,27.46881140000187,,,,,27.453892300021835,27.46881140000187,27.949243400013074,27.949243400013074,27.949243400013074,,28.749760299979243,r,1,0.791616200003773,None,,,,,141332,001,2025-08-24_14h32.53.254,Stroop Task,,2025.1.1,60.00204007092619,2025-08-24 14h32.59.966195 +0530,
BLUE,red,I,r,20,0,5,r,1,0.5067361000110395,None,5,0,20,2,28.76856230001431,,,,,28.7505912000197,28.76856230001431,29.248998199997004,29.248998199997004,29.248998199997004,,29.76660209998954,r,1,0.5067361000110395,None,,,,,141332,001,2025-08-24_14h32.53.254,Stroop Task,,2025.1.1,60.00204007092619,2025-08-24 14h32.59.966195 +0530,
BLUE,blue,C,b,21,1,5,b,1,0.48555769998347387,None,5,1,21,3,29.784683000005316,,,,,29.7674705000245,29.784683000005316,30.265653599984944,30.265653599984944,30.265653599984944,,30.766222900012508,b,1,0.48555769998347387,None,,,,,141332,001,2025-08-24_14h32.53.254,Stroop Task,,2025.1.1,60.00204007092619,2025-08-24 14h32.59.966195 +0530,
RED,red,C,r,22,2,5,r,1,0.677503600018099,None,5,2,22,0,30.784677000017837,,,,,30.77048740000464,30.784677000017837,31.265297600009944,31.265297600009944,31.265297600009944,,31.949247899989132,r,1,0.677503600018099,None,,,,,141332,001,2025-08-24_14h32.53.254,Stroop Task,,2025.1.1,60.00204007092619,2025-08-24 14h32.59.966195 +0530,
RED,blue,I,b,23,3,5,b,1,0.6300001000054181,None,5,3,23,1,31.96801220002817,,,,,31.950083200004883,31.96801220002817,32.44812630000524,32.44812630000524,32.44812630000524,,33.08270279999124,b,1,0.6300001000054181,None,,,,,141332,001,2025-08-24_14h32.53.254,Stroop Task,,2025.1.1,60.00204007092619,2025-08-24 14h32.59.966195 +0530,
BLUE,red,I,r,24,0,6,r,1,0.46149119996698573,None,6,0,24,2,33.10075749998214,,,,,33.086588500009384,33.10075749998214,33.58175170002505,33.58175170002505,33.58175170002505,,34.04903799999738,r,1,0.46149119996698573,None,,,,,141332,001,2025-08-24_14h32.53.254,Stroop Task,,2025.1.1,60.00204007092619,2025-08-24 14h32.59.966195 +0530,
RED,red,C,r,25,1,6,r,1,0.29671580001013353,None,6,1,25,0,34.06764640001347,,,,,34.0538870000164,34.06764640001347,34.54819210001733,34.54819210001733,34.54819210001733,,34.849391900002956,r,1,0.29671580001013353,None,,,,,141332,001,2025-08-24_14h32.53.254,Stroop Task,,2025.1.1,60.00204007092619,2025-08-24 14h32.59.966195 +0530,
RED,blue,I,b,26,2,6,b,1,0.456616599985864,None,6,2,26,1,34.8673372999765,,,,,34.850222199980635,34.8673372999765,35.34816500003217,35.34816500003217,35.34816500003217,,35.81556010001805,b,1,0.456616599985864,None,,,,,141332,001,2025-08-24_14h32.53.254,Stroop Task,,2025.1.1,60.00204007092619,2025-08-24 14h32.59.966195 +0530,
BLUE,blue,C,b,27,3,6,b,1,0.4652669999632053,None,6,3,27,3,35.834100599982776,,,,,35.81964080000762,35.834100599982776,36.31475830002455,36.31475830002455,36.31475830002455,,36.78233710001223,b,1,0.4652669999632053,None,,,,,141332,001,2025-08-24_14h32.53.254,Stroop Task,,2025.1.1,60.00204007092619,2025-08-24 14h32.59.966195 +0530,
RED,blue,I,b,28,0,7,b,1,0.46445790003053844,None,7,0,28,1,36.8002426000312,,,,,36.78629419999197,36.8002426000312,37.28118400002131,37.28118400002131,37.28118400002131,,37.748263799992856,b,1,0.46445790003053844,None,,,,,141332,001,2025-08-24_14h32.53.254,Stroop Task,,2025.1.1,60.00204007092619,2025-08-24 14h32.59.966195 +0530,
RED,red,C,r,29,1,7,r,1,0.479479200032074,None,7,1,29,0,37.76708979997784,,,,,37.74936459999299,37.76708979997784,38.2476769000059,38.2476769000059,38.2476769000059,,38.73199449997628,r,1,0.479479200032074,None,,,,,141332,001,2025-08-24_14h32.53.254,Stroop Task,,2025.1.1,60.00204007092619,2025-08-24 14h32.59.966195 +0530,
BLUE,blue,C,b,30,2,7,b,1,0.546891100006178,None,7,2,30,3,38.75021349999588,,,,,38.735801699978765,38.75021349999588,39.23090740002226,39.23090740002226,39.23090740002226,,39.781616599997506,b,1,0.546891100006178,None,,,,,141332,001,2025-08-24_14h32.53.254,Stroop Task,,2025.1.1,60.00204007092619,2025-08-24 14h32.59.966195 +0530,
BLUE,red,I,r,31,3,7,r,1,0.5986155000282452,None,7,3,31,2,39.800501900026575,,,,,39.78246469999431,39.800501900026575,40.280840200022794,40.280840200022794,40.280840200022794,,40.88173289998667,r,1,0.5986155000282452,None,,,,,141332,001,2025-08-24_14h32.53.254,Stroop Task,,2025.1.1,60.00204007092619,2025-08-24 14h32.59.966195 +0530,
BLUE,blue,C,b,32,0,8,b,1,0.5336548999766819,None,8,0,32,3,40.90003070002422,,,,,40.88259609998204,40.90003070002422,41.38073740003165,41.38073740003165,41.38073740003165,,41.93135979998624,b,1,0.5336548999766819,None,,,,,141332,001,2025-08-24_14h32.53.254,Stroop Task,,2025.1.1,60.00204007092619,2025-08-24 14h32.59.966195 +0530,
BLUE,red,I,r,33,1,8,r,1,0.6331783000496216,None,8,1,33,2,41.95007690001512,,,,,41.932175200025085,41.95007690001512,42.430580499989446,42.430580499989446,42.430580499989446,,43.06466550001642,r,1,0.6331783000496216,None,,,,,141332,001,2025-08-24_14h32.53.254,Stroop Task,,2025.1.1,60.00204007092619,2025-08-24 14h32.59.966195 +0530,
RED,blue,I,b,34,2,8,b,1,0.8814275999902748,None,8,2,34,1,43.0829443000257,,,,,43.068718200025614,43.0829443000257,43.56370659999084,43.56370659999084,43.56370659999084,,44.44746310001938,b,1,0.8814275999902748,None,,,,,141332,001,2025-08-24_14h32.53.254,Stroop Task,,2025.1.1,60.00204007092619,2025-08-24 14h32.59.966195 +0530,
RED,red,C,r,35,3,8,r,1,1.1906175999902189,None,8,3,35,0,44.46607610001229,,,,,44.448323099990375,44.46607610001229,44.94697340001585,44.94697340001585,44.94697340001585,,46.1469994999934,r,1,1.1906175999902189,None,,,,,141332,001,2025-08-24_14h32.53.254,Stroop Task,,2025.1.1,60.00204007092619,2025-08-24 14h32.59.966195 +0530,
RED,red,C,r,36,0,9,r,1,0.5104013999807648,None,9,0,36,0,46.16592519998085,,,,,46.14784170000348,46.16592519998085,46.6466007999843,46.6466007999843,46.6466007999843,,47.163976299983915,r,1,0.5104013999807648,None,,,,,141332,001,2025-08-24_14h32.53.254,Stroop Task,,2025.1.1,60.00204007092619,2025-08-24 14h32.59.966195 +0530,
RED,blue,I,b,37,1,9,b,1,0.47575580002740026,None,9,1,37,1,47.18244110001251,,,,,47.164854100032244,47.18244110001251,47.66319769999245,47.66319769999245,47.66319769999245,,48.147131700010505,b,1,0.47575580002740026,None,,,,,141332,001,2025-08-24_14h32.53.254,Stroop Task,,2025.1.1,60.00204007092619,2025-08-24 14h32.59.966195 +0530,
BLUE,blue,C,b,38,2,9,b,1,0.28215220000129193,None,9,2,38,3,48.165495400025975,,,,,48.151365600002464,48.165495400025975,48.64634079998359,48.64634079998359,48.64634079998359,,48.9305342999869,b,1,0.28215220000129193,None,,,,,141332,001,2025-08-24_14h32.53.254,Stroop Task,,2025.1.1,60.00204007092619,2025-08-24 14h32.59.966195 +0530,
BLUE,red,I,r,39,3,9,r,1,0.5245002000010572,None,9,3,39,2,48.949030400021,,,,,48.93151389999548,48.949030400021,49.42977220000466,49.42977220000466,49.42977220000466,,49.96382479998283,r,1,0.5245002000010572,None,,,,,141332,001,2025-08-24_14h32.53.254,Stroop Task,,2025.1.1,60.00204007092619,2025-08-24 14h32.59.966195 +0530,
,,,,,,,,,,,,,,,,,,,,,,,,,,,,,,,49.964025099994615,49.97924190002959,50.97953710000729,50.96338269999251,141332,001,2025-08-24_14h32.53.254,Stroop Task,,2025.1.1,60.00204007092619,2025-08-24 14h32.59.966195 +0530,
