word,colour,stimulus_condition,correct_response,thisN,thisTrialN,thisRepN,key_resp.keys,key_resp.corr,key_resp.rt,key_resp.duration,trials.thisRepN,trials.thisTrialN,trials.thisN,trials.thisIndex,thisRow.t,notes,ins.started,text_2.started,ins.stopped,trial.started,Fixation.started,Fixation.stopped,text.started,key_resp.started,trial.stopped,trials.key_resp.keys,trials.key_resp.corr,trials.key_resp.rt,trials.key_resp.duration,Thank_you.started,text_3.started,text_3.stopped,Thank_you.stopped,participant,session,date,expName,expVersion,psychopyVersion,frameRate,expStart,
,,,,,,,,,,,,,,,,,0.0031305000302381814,0.008628699986729771,1.0078728999942541,,,,,,,,,,,,,,,423594,001,2025-08-24_14h22.22.851,Stroop Task,,2025.1.1,60.18607127347125,2025-08-24 14h30.34.695557 +0530,
RED,red,C,r,0,0,0,r,1,3.3365336999995634,None,0,0,0,0,1.0760998000041582,,,,,1.0658054000232369,1.0760998000041582,1.5081304999766871,1.5081304999766871,1.5081304999766871,4.957165600033477,r,1,3.3365336999995634,None,,,,,423594,001,2025-08-24_14h22.22.851,Stroop Task,,2025.1.1,60.18607127347125,2025-08-24 14h30.34.695557 +0530,
BLUE,red,I,r,1,1,0,b,0,0.47233540000161156,None,0,1,1,2,4.972591200028546,,,,,4.964900100021623,4.972591200028546,5.457850700011477,5.457850700011477,5.457850700011477,5.9408981000306085,b,0,0.47233540000161156,None,,,,,423594,001,2025-08-24_14h22.22.851,Stroop Task,,2025.1.1,60.18607127347125,2025-08-24 14h30.34.695557 +0530,
BLUE,blue,C,b,2,2,0,b,1,0.2803453999804333,None,0,2,2,3,5.960001200030092,,,,,5.941744900017511,5.960001200030092,6.4404280000017025,6.4404280000017025,6.4404280000017025,6.724194800015539,b,1,0.2803453999804333,None,,,,,423594,001,2025-08-24_14h22.22.851,Stroop Task,,2025.1.1,60.18607127347125,2025-08-24 14h30.34.695557 +0530,
RED,blue,I,b,3,3,0,r,0,0.7270592999993823,None,0,3,3,1,6.743442200007848,,,,,6.728352600010112,6.743442200007848,7.224454800016247,7.224454800016247,7.224454800016247,7.957525499979965,r,0,0.7270592999993823,None,,,,,423594,001,2025-08-24_14h22.22.851,Stroop Task,,2025.1.1,60.18607127347125,2025-08-24 14h30.34.695557 +0530,
RED,blue,I,b,4,0,1,r,0,0.5201687999651767,None,1,0,4,1,7.976863200019579,,,,,7.958399299997836,7.976863200019579,8.456660500029102,8.456660500029102,8.456660500029102,8.990858700009994,r,0,0.5201687999651767,None,,,,,423594,001,2025-08-24_14h22.22.851,Stroop Task,,2025.1.1,60.18607127347125,2025-08-24 14h30.34.695557 +0530,
BLUE,blue,C,b,5,1,1,b,1,1.2225532999727875,None,1,1,5,3,9.009907100000419,,,,,8.994989500031807,9.009907100000419,9.490430200006813,9.490430200006813,9.490430200006813,10.7237873999984,b,1,1.2225532999727875,None,,,,,423594,001,2025-08-24_14h22.22.851,Stroop Task,,2025.1.1,60.18607127347125,2025-08-24 14h30.34.695557 +0530,
BLUE,red,I,r,6,2,1,r,1,0.5698336999630556,None,1,2,6,2,10.742908300017007,,,,,10.724635899998248,10.742908300017007,11.223921400029212,11.223921400029212,11.223921400029212,11.80718160001561,r,1,0.5698336999630556,None,,,,,423594,001,2025-08-24_14h22.22.851,Stroop Task,,2025.1.1,60.18607127347125,2025-08-24 14h30.34.695557 +0530,
RED,red,C,r,7,3,1,r,1,0.4478408999857493,None,1,3,7,0,11.826267900003586,,,,,11.811586200026795,11.826267900003586,12.30635379999876,12.30635379999876,12.30635379999876,12.756941600004211,r,1,0.4478408999857493,None,,,,,423594,001,2025-08-24_14h22.22.851,Stroop Task,,2025.1.1,60.18607127347125,2025-08-24 14h30.34.695557 +0530,
BLUE,blue,C,b,8,0,2,b,1,0.3736134000355378,None,2,0,8,3,12.775968500005547,,,,,12.760939400002826,12.775968500005547,13.256121999991592,13.256121999991592,13.256121999991592,13.640530100034084,b,1,0.3736134000355378,None,,,,,423594,001,2025-08-24_14h22.22.851,Stroop Task,,2025.1.1,60.18607127347125,2025-08-24 14h30.34.695557 +0530,
RED,red,C,r,9,1,2,r,1,0.5704069000203162,None,2,1,9,0,13.658897700021043,,,,,13.644418300013058,13.658897700021043,14.139859899994917,14.139859899994917,14.139859899994917,14.723310799978208,r,1,0.5704069000203162,None,,,,,423594,001,2025-08-24_14h22.22.851,Stroop Task,,2025.1.1,60.18607127347125,2025-08-24 14h30.34.695557 +0530,
RED,blue,I,b,10,2,2,b,1,0.6487979000085033,None,2,2,10,1,14.742760699999053,,,,,14.724202100012917,14.742760699999053,15.222372199990787,15.222372199990787,15.222372199990787,15.873711200023536,b,1,0.6487979000085033,None,,,,,423594,001,2025-08-24_14h22.22.851,Stroop Task,,2025.1.1,60.18607127347125,2025-08-24 14h30.34.695557 +0530,
BLUE,red,I,r,11,3,2,r,1,0.6458164000068791,None,2,3,11,2,15.893062399991322,,,,,15.877429999993183,15.893062399991322,16.37262430001283,16.37262430001283,16.37262430001283,17.02361029997701,r,1,0.6458164000068791,None,,,,,423594,001,2025-08-24_14h22.22.851,Stroop Task,,2025.1.1,60.18607127347125,2025-08-24 14h30.34.695557 +0530,
BLUE,red,I,r,12,0,3,r,1,0.7695878999656998,None,3,0,12,2,17.042315200029407,,,,,17.0244767999975,17.042315200029407,17.522752100019716,17.522752100019716,17.522752100019716,18.306557000032626,r,1,0.7695878999656998,None,,,,,423594,001,2025-08-24_14h22.22.851,Stroop Task,,2025.1.1,60.18607127347125,2025-08-24 14h30.34.695557 +0530,
RED,blue,I,b,13,1,3,b,1,0.317256800015457,None,3,1,13,1,18.325854900002014,,,,,18.309787300007883,18.325854900002014,18.805352600000333,18.805352600000333,18.805352600000333,19.1393235999858,b,1,0.317256800015457,None,,,,,423594,001,2025-08-24_14h22.22.851,Stroop Task,,2025.1.1,60.18607127347125,2025-08-24 14h30.34.695557 +0530,
BLUE,blue,C,b,14,2,3,b,1,0.3340955000021495,None,3,2,14,3,19.15848929999629,,,,,19.143451799987815,19.15848929999629,19.638734199979808,19.638734199979808,19.638734199979808,19.990027900028508,b,1,0.3340955000021495,None,,,,,423594,001,2025-08-24_14h22.22.851,Stroop Task,,2025.1.1,60.18607127347125,2025-08-24 14h30.34.695557 +0530,
RED,red,C,r,15,3,3,r,1,0.44444779999321327,None,3,3,15,0,20.00908809999237,,,,,19.99324019998312,20.00908809999237,20.489097699988633,20.489097699988633,20.489097699988633,20.939113100001123,r,1,0.44444779999321327,None,,,,,423594,001,2025-08-24_14h22.22.851,Stroop Task,,2025.1.1,60.18607127347125,2025-08-24 14h30.34.695557 +0530,
BLUE,blue,C,b,16,0,4,r,0,0.33533979998901486,None,4,0,16,3,20.957930799981114,,,,,20.94310019997647,20.957930799981114,21.438779300020542,21.438779300020542,21.438779300020542,21.789759600011166,r,0,0.33533979998901486,None,,,,,423594,001,2025-08-24_14h22.22.851,Stroop Task,,2025.1.1,60.18607127347125,2025-08-24 14h30.34.695557 +0530,
RED,red,C,r,17,1,4,b,0,0.031119999999646097,None,4,1,17,0,21.808827799977735,,,,,21.792838199995458,21.808827799977735,22.288287699979264,22.288287699979264,22.288287699979264,22.322593500022776,b,0,0.031119999999646097,None,,,,,423594,001,2025-08-24_14h22.22.851,Stroop Task,,2025.1.1,60.18607127347125,2025-08-24 14h30.34.695557 +0530,
BLUE,red,I,r,18,2,4,b,0,1.5489921999978833,None,4,2,18,2,22.34214060002705,,,,,22.32589119998738,22.34214060002705,22.82154289999744,22.82154289999744,22.82154289999744,24.37198380002519,b,0,1.5489921999978833,None,,,,,423594,001,2025-08-24_14h22.22.851,Stroop Task,,2025.1.1,60.18607127347125,2025-08-24 14h30.34.695557 +0530,
RED,blue,I,b,19,3,4,r,0,0.6647239000303671,None,4,3,19,1,24.391189599991776,,,,,24.375899699982256,24.391189599991776,24.8713071999955,24.8713071999955,24.8713071999955,25.5390523999813,r,0,0.6647239000303671,None,,,,,423594,001,2025-08-24_14h22.22.851,Stroop Task,,2025.1.1,60.18607127347125,2025-08-24 14h30.34.695557 +0530,
RED,red,C,r,20,0,5,b,0,1.3695792999933474,None,5,0,20,0,25.557950199989136,,,,,25.539740699983668,25.557950199989136,26.03750009997748,26.03750009997748,26.03750009997748,27.42216890002601,b,0,1.3695792999933474,None,,,,,423594,001,2025-08-24_14h22.22.851,Stroop Task,,2025.1.1,60.18607127347125,2025-08-24 14h30.34.695557 +0530,
RED,blue,I,b,21,1,5,r,0,0.6511801999877207,None,5,1,21,1,27.441126800025813,,,,,27.42293250001967,27.441126800025813,27.921592300001066,27.921592300001066,27.921592300001066,28.58806259999983,r,0,0.6511801999877207,None,,,,,423594,001,2025-08-24_14h22.22.851,Stroop Task,,2025.1.1,60.18607127347125,2025-08-24 14h30.34.695557 +0530,
BLUE,blue,C,b,22,2,5,b,1,0.5707012000493705,None,5,2,22,3,28.607155799982138,,,,,28.5920318000135,28.607155799982138,29.087619500001892,29.087619500001892,29.087619500001892,29.67173120001098,b,1,0.5707012000493705,None,,,,,423594,001,2025-08-24_14h22.22.851,Stroop Task,,2025.1.1,60.18607127347125,2025-08-24 14h30.34.695557 +0530,
BLUE,red,I,r,23,3,5,r,1,0.38794649997726083,None,5,3,23,2,29.690910000004806,,,,,29.672322800033726,29.690910000004806,30.170783500012476,30.170783500012476,30.170783500012476,30.57141179998871,r,1,0.38794649997726083,None,,,,,423594,001,2025-08-24_14h22.22.851,Stroop Task,,2025.1.1,60.18607127347125,2025-08-24 14h30.34.695557 +0530,
BLUE,red,I,r,24,0,6,r,1,0.3434560999739915,None,6,0,24,2,30.59034450002946,,,,,30.572011100011878,30.59034450002946,31.070684999984223,31.070684999984223,31.070684999984223,31.421815400011837,r,1,0.3434560999739915,None,,,,,423594,001,2025-08-24_14h22.22.851,Stroop Task,,2025.1.1,60.18607127347125,2025-08-24 14h30.34.695557 +0530,
RED,red,C,r,25,1,6,r,1,0.44449369999347255,None,6,1,25,0,31.440498000010848,,,,,31.425745700020343,31.440498000010848,31.92022889998043,31.92022889998043,31.92022889998043,32.37128830002621,r,1,0.44449369999347255,None,,,,,423594,001,2025-08-24_14h22.22.851,Stroop Task,,2025.1.1,60.18607127347125,2025-08-24 14h30.34.695557 +0530,
BLUE,blue,C,b,26,2,6,b,1,0.3748947000131011,None,6,2,26,3,32.390858500031754,,,,,32.37491140002385,32.390858500031754,32.87054159998661,32.87054159998661,32.87054159998661,33.2544602000271,b,1,0.3748947000131011,None,,,,,423594,001,2025-08-24_14h22.22.851,Stroop Task,,2025.1.1,60.18607127347125,2025-08-24 14h30.34.695557 +0530,
RED,blue,I,b,27,3,6,b,1,0.5623351999674924,None,6,3,27,1,33.273847299977206,,,,,33.258322699985,33.273847299977206,33.753435700025875,33.753435700025875,33.753435700025875,34.32234620000236,b,1,0.5623351999674924,None,,,,,423594,001,2025-08-24_14h22.22.851,Stroop Task,,2025.1.1,60.18607127347125,2025-08-24 14h30.34.695557 +0530,
RED,blue,I,b,28,0,7,b,1,0.2771212999941781,None,7,0,28,1,34.339869800023735,,,,,34.32319209998241,34.339869800023735,34.82022870000219,34.82022870000219,34.82022870000219,35.104123700002674,b,1,0.2771212999941781,None,,,,,423594,001,2025-08-24_14h22.22.851,Stroop Task,,2025.1.1,60.18607127347125,2025-08-24 14h30.34.695557 +0530,
BLUE,blue,C,b,29,1,7,b,1,0.27864279999630526,None,7,1,29,3,35.123340699996334,,,,,35.108287499984726,35.123340699996334,35.603293300024234,35.603293300024234,35.603293300024234,35.887446200009435,b,1,0.27864279999630526,None,,,,,423594,001,2025-08-24_14h22.22.851,Stroop Task,,2025.1.1,60.18607127347125,2025-08-24 14h30.34.695557 +0530,
BLUE,red,I,r,30,2,7,r,1,0.45087749999947846,None,7,2,30,2,35.906462399987504,,,,,35.88827689999016,35.906462399987504,36.38655609998386,36.38655609998386,36.38655609998386,36.85424870002316,r,1,0.45087749999947846,None,,,,,423594,001,2025-08-24_14h22.22.851,Stroop Task,,2025.1.1,60.18607127347125,2025-08-24 14h30.34.695557 +0530,
RED,red,C,r,31,3,7,r,1,0.37428190000355244,None,7,3,31,0,36.873748200014234,,,,,36.857564500009175,36.873748200014234,37.353644100017846,37.353644100017846,37.353644100017846,37.73720819997834,r,1,0.37428190000355244,None,,,,,423594,001,2025-08-24_14h22.22.851,Stroop Task,,2025.1.1,60.18607127347125,2025-08-24 14h30.34.695557 +0530,
RED,red,C,r,32,0,8,r,1,0.7574377999990247,None,8,0,32,0,37.75616789999185,,,,,37.737988999986555,37.75616789999185,38.23626380000496,38.23626380000496,38.23626380000496,39.00371770001948,r,1,0.7574377999990247,None,,,,,423594,001,2025-08-24_14h22.22.851,Stroop Task,,2025.1.1,60.18607127347125,2025-08-24 14h30.34.695557 +0530,
BLUE,blue,C,b,33,1,8,b,1,0.5276548999827355,None,8,1,33,3,39.02308200002881,,,,,39.007071700005326,39.02308200002881,39.502765299985185,39.502765299985185,39.502765299985185,40.03660089999903,b,1,0.5276548999827355,None,,,,,423594,001,2025-08-24_14h22.22.851,Stroop Task,,2025.1.1,60.18607127347125,2025-08-24 14h30.34.695557 +0530,
BLUE,red,I,r,34,2,8,r,1,1.0234432999859564,None,8,2,34,2,40.05576130002737,,,,,40.03741300001275,40.05576130002737,40.5365420000162,40.5365420000162,40.5365420000162,41.570005399989896,r,1,1.0234432999859564,None,,,,,423594,001,2025-08-24_14h22.22.851,Stroop Task,,2025.1.1,60.18607127347125,2025-08-24 14h30.34.695557 +0530,
RED,blue,I,b,35,3,8,b,1,0.29590040002949536,None,8,3,35,1,41.58926560002146,,,,,41.57329510001,41.58926560002146,42.06978800002253,42.06978800002253,42.06978800002253,42.37003819999518,b,1,0.29590040002949536,None,,,,,423594,001,2025-08-24_14h22.22.851,Stroop Task,,2025.1.1,60.18607127347125,2025-08-24 14h30.34.695557 +0530,
BLUE,red,I,r,36,0,9,r,1,0.8828126000007614,None,9,0,36,2,42.389583299984224,,,,,42.373488800018094,42.389583299984224,42.86864509998122,42.86864509998122,42.86864509998122,43.75324330001604,r,1,0.8828126000007614,None,,,,,423594,001,2025-08-24_14h22.22.851,Stroop Task,,2025.1.1,60.18607127347125,2025-08-24 14h30.34.695557 +0530,
BLUE,blue,C,b,37,1,9,b,1,0.5596822000225075,None,9,1,37,3,43.77227140002651,,,,,43.75399270001799,43.77227140002651,44.25268069998128,44.25268069998128,44.25268069998128,44.819951299985405,b,1,0.5596822000225075,None,,,,,423594,001,2025-08-24_14h22.22.851,Stroop Task,,2025.1.1,60.18607127347125,2025-08-24 14h30.34.695557 +0530,
RED,red,C,r,38,2,9,r,1,0.4892892999923788,None,9,2,38,0,44.83843850000994,,,,,44.82300859998213,44.83843850000994,45.318441900017206,45.318441900017206,45.318441900017206,45.819375700026285,r,1,0.4892892999923788,None,,,,,423594,001,2025-08-24_14h22.22.851,Stroop Task,,2025.1.1,60.18607127347125,2025-08-24 14h30.34.695557 +0530,
RED,blue,I,b,39,3,9,b,1,0.6352399000315927,None,9,3,39,1,45.838774500007275,,,,,45.82018739997875,45.838774500007275,46.3183691999875,46.3183691999875,46.3183691999875,46.96914509998169,b,1,0.6352399000315927,None,,,,,423594,001,2025-08-24_14h22.22.851,Stroop Task,,2025.1.1,60.18607127347125,2025-08-24 14h30.34.695557 +0530,
,,,,,,,,,,,,,,,,,,,,,,,,,,,,,,46.969361800001934,46.986208499991335,47.985297699982766,47.96917980001308,423594,001,2025-08-24_14h22.22.851,Stroop Task,,2025.1.1,60.18607127347125,2025-08-24 14h30.34.695557 +0530,
