word,colour,stimulus_condition,correct_response,thisN,thisTrialN,thisRepN,key_resp.keys,key_resp.corr,key_resp.rt,key_resp.duration,trials.thisRepN,trials.thisTrialN,trials.thisN,trials.thisIndex,thisRow.t,notes,ins.started,text_2.started,text_2.stopped,ins.stopped,trial.started,Fixation.started,Fixation.stopped,text.started,key_resp.started,trial.stopped,trials.key_resp.keys,trials.key_resp.corr,trials.key_resp.rt,trials.key_resp.duration,Thank_you.started,text_3.started,text_3.stopped,Thank_you.stopped,participant,session,date,expName,expVersion,psychopyVersion,frameRate,expStart,
,,,,,,,,,,,,,,,,,0.001645700000153738,0.0038287000006675953,1.0313984000003984,0.9981306999998196,,,,,,,,,,,,,,,925692,001,2025-08-25_16h34.56.728,Stroop Task,,2025.1.1,59.947725582824006,2025-08-25 16h35.00.559194 +0530,
BLUE,red,I,r,0,0,0,r,1,1.046620900000562,None,0,0,0,2,1.0313984000003984,,,,,,1.023640700001124,1.0313984000003984,1.4976095000001806,1.4976095000001806,1.4976095000001806,2.556642200001079,r,1,1.046620900000562,None,,,,,925692,001,2025-08-25_16h34.56.728,Stroop Task,,2025.1.1,59.947725582824006,2025-08-25 16h35.00.559194 +0530,
RED,red,C,r,1,1,0,r,1,0.5310043999998015,None,0,1,1,0,2.570619900001475,,,,,,2.564335700000811,2.570619900001475,3.064188700000159,3.064188700000159,3.064188700000159,3.5978235000002314,r,1,0.5310043999998015,None,,,,,925692,001,2025-08-25_16h34.56.728,Stroop Task,,2025.1.1,59.947725582824006,2025-08-25 16h35.00.559194 +0530,
RED,blue,I,b,2,2,0,b,1,0.7729467999997723,None,0,2,2,1,3.6167209000013827,,,,,,3.59863790000054,3.6167209000013827,4.0972360000014305,4.0972360000014305,4.0972360000014305,4.8810375000011845,b,1,0.7729467999997723,None,,,,,925692,001,2025-08-25_16h34.56.728,Stroop Task,,2025.1.1,59.947725582824006,2025-08-25 16h35.00.559194 +0530,
BLUE,blue,C,b,3,3,0,b,1,0.45473909999964235,None,0,3,3,3,4.899574799999755,,,,,,4.885111800000232,4.899574799999755,5.380449700000099,5.380449700000099,5.380449700000099,5.847721400001319,b,1,0.45473909999964235,None,,,,,925692,001,2025-08-25_16h34.56.728,Stroop Task,,2025.1.1,59.947725582824006,2025-08-25 16h35.00.559194 +0530,
BLUE,blue,C,b,4,0,1,b,1,0.5395198000005621,None,1,0,4,3,5.866160600000512,,,,,,5.8485307000009925,5.866160600000512,6.346865700001217,6.346865700001217,6.346865700001217,6.897634000000835,b,1,0.5395198000005621,None,,,,,925692,001,2025-08-25_16h34.56.728,Stroop Task,,2025.1.1,59.947725582824006,2025-08-25 16h35.00.559194 +0530,
RED,red,C,r,5,1,1,r,1,0.569490500000029,None,1,1,5,0,6.915735200000199,,,,,,6.901480300000912,6.915735200000199,7.397032000000763,7.397032000000763,7.397032000000763,7.980601400000523,r,1,0.569490500000029,None,,,,,925692,001,2025-08-25_16h34.56.728,Stroop Task,,2025.1.1,59.947725582824006,2025-08-25 16h35.00.559194 +0530,
BLUE,red,I,r,6,2,1,r,1,0.8076337999991665,None,1,2,6,2,7.9988014999998995,,,,,,7.984450500000094,7.9988014999998995,8.480332099999941,8.480332099999941,8.480332099999941,9.297165699999823,r,1,0.8076337999991665,None,,,,,925692,001,2025-08-25_16h34.56.728,Stroop Task,,2025.1.1,59.947725582824006,2025-08-25 16h35.00.559194 +0530,
RED,blue,I,b,7,3,1,b,1,0.5716164999994362,None,1,3,7,1,9.315538000000743,,,,,,9.300881000001027,9.315538000000743,9.796855600001436,9.796855600001436,9.796855600001436,10.380927300000621,b,1,0.5716164999994362,None,,,,,925692,001,2025-08-25_16h34.56.728,Stroop Task,,2025.1.1,59.947725582824006,2025-08-25 16h35.00.559194 +0530,
BLUE,blue,C,b,8,0,2,b,1,0.373963800000638,None,2,0,8,3,10.398755400001392,,,,,,10.384753000000273,10.398755400001392,10.880274700000882,10.880274700000882,10.880274700000882,11.264591200000723,b,1,0.373963800000638,None,,,,,925692,001,2025-08-25_16h34.56.728,Stroop Task,,2025.1.1,59.947725582824006,2025-08-25 16h35.00.559194 +0530,
RED,red,C,r,9,1,2,r,1,0.5710165000000416,None,2,1,9,0,11.282776100000774,,,,,,11.268483800000467,11.282776100000774,11.763709900000322,11.763709900000322,11.763709900000322,12.347411900000225,r,1,0.5710165000000416,None,,,,,925692,001,2025-08-25_16h34.56.728,Stroop Task,,2025.1.1,59.947725582824006,2025-08-25 16h35.00.559194 +0530,
RED,blue,I,b,10,2,2,b,1,0.7888394000001426,None,2,2,10,1,12.366130500000509,,,,,,12.348464400000012,12.366130500000509,12.847175900000366,12.847175900000366,12.847175900000366,13.647550300000148,b,1,0.7888394000001426,None,,,,,925692,001,2025-08-25_16h34.56.728,Stroop Task,,2025.1.1,59.947725582824006,2025-08-25 16h35.00.559194 +0530,
BLUE,red,I,r,11,3,2,r,1,0.9494319999994332,None,2,3,11,2,13.6656380000004,,,,,,13.65171190000001,13.6656380000004,14.146631400000842,14.146631400000842,14.146631400000842,15.096845600000961,r,1,0.9494319999994332,None,,,,,925692,001,2025-08-25_16h34.56.728,Stroop Task,,2025.1.1,59.947725582824006,2025-08-25 16h35.00.559194 +0530,
RED,red,C,r,12,0,3,r,1,0.6148343000004388,None,3,0,12,0,15.115597699999853,,,,,,15.100854199999958,15.115597699999853,15.596744300000864,15.596744300000864,15.596744300000864,16.21380020000106,r,1,0.6148343000004388,None,,,,,925692,001,2025-08-25_16h34.56.728,Stroop Task,,2025.1.1,59.947725582824006,2025-08-25 16h35.00.559194 +0530,
BLUE,blue,C,b,13,1,3,b,1,0.4990520999999717,None,3,1,13,3,16.231996000000436,,,,,,16.21785170000112,16.231996000000436,16.71314910000001,16.71314910000001,16.71314910000001,17.213712700000542,b,1,0.4990520999999717,None,,,,,925692,001,2025-08-25_16h34.56.728,Stroop Task,,2025.1.1,59.947725582824006,2025-08-25 16h35.00.559194 +0530,
RED,blue,I,b,14,2,3,b,1,0.7609471999985544,None,3,2,14,1,17.23205179999968,,,,,,17.21748050000133,17.23205179999968,17.71293760000117,17.71293760000117,17.71293760000117,18.480238300000565,b,1,0.7609471999985544,None,,,,,925692,001,2025-08-25_16h34.56.728,Stroop Task,,2025.1.1,59.947725582824006,2025-08-25 16h35.00.559194 +0530,
BLUE,red,I,r,15,3,3,r,1,0.4946466000001237,None,3,3,15,2,18.498523700000078,,,,,,18.484481999999844,18.498523700000078,18.979553200000737,18.979553200000737,18.979553200000737,19.479741000001013,r,1,0.4946466000001237,None,,,,,925692,001,2025-08-25_16h34.56.728,Stroop Task,,2025.1.1,59.947725582824006,2025-08-25 16h35.00.559194 +0530,
BLUE,blue,C,b,16,0,4,b,1,0.5658899999998539,None,4,0,16,3,19.498750000000655,,,,,,19.48055370000111,19.498750000000655,19.979376900000716,19.979376900000716,19.979376900000716,20.546537700000044,b,1,0.5658899999998539,None,,,,,925692,001,2025-08-25_16h34.56.728,Stroop Task,,2025.1.1,59.947725582824006,2025-08-25 16h35.00.559194 +0530,
RED,red,C,r,17,1,4,r,1,0.6250813000006019,None,4,1,17,0,20.564965700001267,,,,,,20.550437100000636,20.564965700001267,21.04564180000125,21.04564180000125,21.04564180000125,21.679878400000234,r,1,0.6250813000006019,None,,,,,925692,001,2025-08-25_16h34.56.728,Stroop Task,,2025.1.1,59.947725582824006,2025-08-25 16h35.00.559194 +0530,
RED,blue,I,b,18,2,4,b,1,0.577450199998566,None,4,2,18,1,21.698115000001053,,,,,,21.680717600000207,21.698115000001053,22.17920310000045,22.17920310000045,22.17920310000045,22.76294990000133,b,1,0.577450199998566,None,,,,,925692,001,2025-08-25_16h34.56.728,Stroop Task,,2025.1.1,59.947725582824006,2025-08-25 16h35.00.559194 +0530,
BLUE,red,I,r,19,3,4,r,1,0.729619100000491,None,4,3,19,2,22.781327200000305,,,,,,22.76723310000125,22.781327200000305,23.262250499999936,23.262250499999936,23.262250499999936,23.99579210000047,r,1,0.729619100000491,None,,,,,925692,001,2025-08-25_16h34.56.728,Stroop Task,,2025.1.1,59.947725582824006,2025-08-25 16h35.00.559194 +0530,
BLUE,blue,C,b,20,0,5,b,1,0.6625014999990526,None,5,0,20,3,24.01488790000076,,,,,,23.99660600000061,24.01488790000076,24.495417300000554,24.495417300000554,24.495417300000554,25.162470700000995,b,1,0.6625014999990526,None,,,,,925692,001,2025-08-25_16h34.56.728,Stroop Task,,2025.1.1,59.947725582824006,2025-08-25 16h35.00.559194 +0530,
RED,blue,I,b,21,1,5,b,1,0.6510037999996712,None,5,1,21,1,25.180885600000693,,,,,,25.166469400001006,25.180885600000693,25.66198179999992,25.66198179999992,25.66198179999992,26.329270899999756,b,1,0.6510037999996712,None,,,,,925692,001,2025-08-25_16h34.56.728,Stroop Task,,2025.1.1,59.947725582824006,2025-08-25 16h35.00.559194 +0530,
BLUE,red,I,r,22,2,5,r,1,0.7181478000002244,None,5,2,22,2,26.347835900000064,,,,,,26.333181400001195,26.347835900000064,26.828507000000172,26.828507000000172,26.828507000000172,27.562461200001053,r,1,0.7181478000002244,None,,,,,925692,001,2025-08-25_16h34.56.728,Stroop Task,,2025.1.1,59.947725582824006,2025-08-25 16h35.00.559194 +0530,
RED,red,C,r,23,3,5,r,1,0.6378580000000511,None,5,3,23,0,27.58056410000063,,,,,,27.566315800000666,27.58056410000063,28.06173200000012,28.06173200000012,28.06173200000012,28.712182600000233,r,1,0.6378580000000511,None,,,,,925692,001,2025-08-25_16h34.56.728,Stroop Task,,2025.1.1,59.947725582824006,2025-08-25 16h35.00.559194 +0530,
BLUE,blue,C,b,24,0,6,b,1,0.514148700000078,None,6,0,24,3,28.73047150000093,,,,,,28.715994300000602,28.73047150000093,29.21151850000024,29.21151850000024,29.21151850000024,29.728380399999878,b,1,0.514148700000078,None,,,,,925692,001,2025-08-25_16h34.56.728,Stroop Task,,2025.1.1,59.947725582824006,2025-08-25 16h35.00.559194 +0530,
RED,red,C,r,25,1,6,r,1,0.5637683000004472,None,6,1,25,0,29.746993500000826,,,,,,29.73225690000072,29.746993500000826,30.22796500000004,30.22796500000004,30.22796500000004,30.794934499999727,r,1,0.5637683000004472,None,,,,,925692,001,2025-08-25_16h34.56.728,Stroop Task,,2025.1.1,59.947725582824006,2025-08-25 16h35.00.559194 +0530,
RED,blue,I,b,26,2,6,b,1,0.6577815000000555,None,6,2,26,1,30.813888500000758,,,,,,30.795752600000924,30.813888500000758,31.29469229999995,31.29469229999995,31.29469229999995,31.961661600000298,b,1,0.6577815000000555,None,,,,,925692,001,2025-08-25_16h34.56.728,Stroop Task,,2025.1.1,59.947725582824006,2025-08-25 16h35.00.559194 +0530,
BLUE,red,I,r,27,3,6,r,1,0.6222216000005574,None,6,3,27,2,31.980350600000747,,,,,,31.965630100001363,31.980350600000747,32.46108430000095,32.46108430000095,32.46108430000095,33.09497250000095,r,1,0.6222216000005574,None,,,,,925692,001,2025-08-25_16h34.56.728,Stroop Task,,2025.1.1,59.947725582824006,2025-08-25 16h35.00.559194 +0530,
BLUE,blue,C,b,28,0,7,b,1,0.5186391000006552,None,7,0,28,3,33.11362150000059,,,,,,33.095772300001045,33.11362150000059,33.5942756000004,33.5942756000004,33.5942756000004,34.12816650000059,b,1,0.5186391000006552,None,,,,,925692,001,2025-08-25_16h34.56.728,Stroop Task,,2025.1.1,59.947725582824006,2025-08-25 16h35.00.559194 +0530,
RED,red,C,r,29,1,7,r,1,0.5769658999997773,None,7,1,29,0,34.14643190000061,,,,,,34.13197890000083,34.14643190000061,34.62754860000132,34.62754860000132,34.62754860000132,35.2113487000006,r,1,0.5769658999997773,None,,,,,925692,001,2025-08-25_16h34.56.728,Stroop Task,,2025.1.1,59.947725582824006,2025-08-25 16h35.00.559194 +0530,
RED,blue,I,b,30,2,7,b,1,0.6184541000002355,None,7,2,30,1,35.22983470000145,,,,,,35.212156499999764,35.22983470000145,35.71078490000036,35.71078490000036,35.71078490000036,36.34448660000089,b,1,0.6184541000002355,None,,,,,925692,001,2025-08-25_16h34.56.728,Stroop Task,,2025.1.1,59.947725582824006,2025-08-25 16h35.00.559194 +0530,
BLUE,red,I,r,31,3,7,r,1,0.5962448999998742,None,7,3,31,2,36.36278409999977,,,,,,36.34840820000136,36.36278409999977,36.844053700000586,36.844053700000586,36.844053700000586,37.4444921000013,r,1,0.5962448999998742,None,,,,,925692,001,2025-08-25_16h34.56.728,Stroop Task,,2025.1.1,59.947725582824006,2025-08-25 16h35.00.559194 +0530,
BLUE,blue,C,b,32,0,8,b,1,0.4870304000014585,None,8,0,32,3,37.46274600000106,,,,,,37.44531370000004,37.46274600000106,37.943816300001345,37.943816300001345,37.943816300001345,38.44430620000094,b,1,0.4870304000014585,None,,,,,925692,001,2025-08-25_16h34.56.728,Stroop Task,,2025.1.1,59.947725582824006,2025-08-25 16h35.00.559194 +0530,
RED,blue,I,b,33,1,8,b,1,0.713213299999552,None,8,1,33,1,38.46249440000065,,,,,,38.448071900000286,38.46249440000065,38.94378460000007,38.94378460000007,38.94378460000007,39.66096490000018,b,1,0.713213299999552,None,,,,,925692,001,2025-08-25_16h34.56.728,Stroop Task,,2025.1.1,59.947725582824006,2025-08-25 16h35.00.559194 +0530,
RED,red,C,r,34,2,8,r,1,0.4486302000004798,None,8,2,34,0,39.67941770000107,,,,,,39.66180540000096,39.67941770000107,40.160139000001436,40.160139000001436,40.160139000001436,40.61086770000111,r,1,0.4486302000004798,None,,,,,925692,001,2025-08-25_16h34.56.728,Stroop Task,,2025.1.1,59.947725582824006,2025-08-25 16h35.00.559194 +0530,
BLUE,red,I,r,35,3,8,r,1,0.4736219999995228,None,8,3,35,2,40.629087600000275,,,,,,40.61522520000108,40.629087600000275,41.110184900000604,41.110184900000604,41.110184900000604,41.59377370000038,r,1,0.4736219999995228,None,,,,,925692,001,2025-08-25_16h34.56.728,Stroop Task,,2025.1.1,59.947725582824006,2025-08-25 16h35.00.559194 +0530,
BLUE,red,I,r,36,0,9,r,1,0.44115749999946274,None,9,0,36,2,41.6121918000008,,,,,,41.59458650000124,41.6121918000008,42.093119000001025,42.093119000001025,42.093119000001025,42.5437976000012,r,1,0.44115749999946274,None,,,,,925692,001,2025-08-25_16h34.56.728,Stroop Task,,2025.1.1,59.947725582824006,2025-08-25 16h35.00.559194 +0530,
RED,red,C,r,37,1,9,r,1,0.3916198999995686,None,9,1,37,0,42.56245940000008,,,,,,42.54776090000087,42.56245940000008,43.04312260000006,43.04312260000006,43.04312260000006,43.44358760000068,r,1,0.3916198999995686,None,,,,,925692,001,2025-08-25_16h34.56.728,Stroop Task,,2025.1.1,59.947725582824006,2025-08-25 16h35.00.559194 +0530,
RED,blue,I,b,38,2,9,b,1,0.46219509999900765,None,9,2,38,1,43.46218680000129,,,,,,43.44440279999981,43.46218680000129,43.94315530000131,43.94315530000131,43.94315530000131,44.41021510000064,b,1,0.46219509999900765,None,,,,,925692,001,2025-08-25_16h34.56.728,Stroop Task,,2025.1.1,59.947725582824006,2025-08-25 16h35.00.559194 +0530,
BLUE,blue,C,b,39,3,9,b,1,0.6358567000006587,None,9,3,39,3,44.42842230000133,,,,,,44.41481540000132,44.42842230000133,44.90958590000082,44.90958590000082,44.90958590000082,45.560059000001274,b,1,0.6358567000006587,None,,,,,925692,001,2025-08-25_16h34.56.728,Stroop Task,,2025.1.1,59.947725582824006,2025-08-25 16h35.00.559194 +0530,
RED,red,C,r,40,0,10,r,1,0.44259600000077626,None,10,0,40,0,45.57840589999978,,,,,,45.563955600000554,45.57840589999978,46.05906250000044,46.05906250000044,46.05906250000044,46.5097652000004,r,1,0.44259600000077626,None,,,,,925692,001,2025-08-25_16h34.56.728,Stroop Task,,2025.1.1,59.947725582824006,2025-08-25 16h35.00.559194 +0530,
BLUE,red,I,r,41,1,10,r,1,0.49737260000074457,None,10,1,41,2,46.528238599999895,,,,,,46.513625700001285,46.528238599999895,47.009217400000125,47.009217400000125,47.009217400000125,47.509366899999804,r,1,0.49737260000074457,None,,,,,925692,001,2025-08-25_16h34.56.728,Stroop Task,,2025.1.1,59.947725582824006,2025-08-25 16h35.00.559194 +0530,
RED,blue,I,b,42,2,10,b,1,0.4585845000001427,None,10,2,42,1,47.5280156000008,,,,,,47.513199500001065,47.5280156000008,48.009136800001215,48.009136800001215,48.009136800001215,48.47642310000083,b,1,0.4585845000001427,None,,,,,925692,001,2025-08-25_16h34.56.728,Stroop Task,,2025.1.1,59.947725582824006,2025-08-25 16h35.00.559194 +0530,
BLUE,blue,C,b,43,3,10,b,1,0.6586731999996118,None,10,3,43,3,48.49454909999986,,,,,,48.48041790000025,48.49454909999986,48.975712200001,48.975712200001,48.975712200001,49.64285630000086,b,1,0.6586731999996118,None,,,,,925692,001,2025-08-25_16h34.56.728,Stroop Task,,2025.1.1,59.947725582824006,2025-08-25 16h35.00.559194 +0530,
RED,red,C,r,44,0,11,r,1,0.5770797000004677,None,11,0,44,0,49.66105880000032,,,,,,49.64671140000064,49.66105880000032,50.14218989999972,50.14218989999972,50.14218989999972,50.72603210000125,r,1,0.5770797000004677,None,,,,,925692,001,2025-08-25_16h34.56.728,Stroop Task,,2025.1.1,59.947725582824006,2025-08-25 16h35.00.559194 +0530,
BLUE,red,I,r,45,1,11,r,1,0.5349145000000135,None,11,1,45,2,50.74425210000118,,,,,,50.72989080000116,50.74425210000118,51.22542220000105,51.22542220000105,51.22542220000105,51.77590340000097,r,1,0.5349145000000135,None,,,,,925692,001,2025-08-25_16h34.56.728,Stroop Task,,2025.1.1,59.947725582824006,2025-08-25 16h35.00.559194 +0530,
BLUE,blue,C,b,46,2,11,b,1,0.4449834999995801,None,11,2,46,3,51.794254100001126,,,,,,51.77671310000005,51.794254100001126,52.275387700001374,52.275387700001374,52.275387700001374,52.72584559999996,b,1,0.4449834999995801,None,,,,,925692,001,2025-08-25_16h34.56.728,Stroop Task,,2025.1.1,59.947725582824006,2025-08-25 16h35.00.559194 +0530,
RED,blue,I,b,47,3,11,b,1,0.6108387000003859,None,11,3,47,1,52.744012200000725,,,,,,52.729698900000585,52.744012200000725,53.22518740000123,53.22518740000123,53.22518740000123,53.84238130000085,b,1,0.6108387000003859,None,,,,,925692,001,2025-08-25_16h34.56.728,Stroop Task,,2025.1.1,59.947725582824006,2025-08-25 16h35.00.559194 +0530,
BLUE,red,I,r,48,0,12,r,1,0.43008430000008957,None,12,0,48,2,53.86059630000091,,,,,,53.84633990000111,53.86059630000091,54.34160660000089,54.34160660000089,54.34160660000089,54.77532030000111,r,1,0.43008430000008957,None,,,,,925692,001,2025-08-25_16h34.56.728,Stroop Task,,2025.1.1,59.947725582824006,2025-08-25 16h35.00.559194 +0530,
RED,red,C,r,49,1,12,r,1,0.5223423000006733,None,12,1,49,0,54.79378160000124,,,,,,54.779161000000386,54.79378160000124,55.27489680000144,55.27489680000144,55.27489680000144,55.80867990000115,r,1,0.5223423000006733,None,,,,,925692,001,2025-08-25_16h34.56.728,Stroop Task,,2025.1.1,59.947725582824006,2025-08-25 16h35.00.559194 +0530,
RED,blue,I,b,50,2,12,b,1,0.44899530000111554,None,12,2,50,1,55.82733120000012,,,,,,55.80947230000129,55.82733120000012,56.307944000000134,56.307944000000134,56.307944000000134,56.75853980000102,b,1,0.44899530000111554,None,,,,,925692,001,2025-08-25_16h34.56.728,Stroop Task,,2025.1.1,59.947725582824006,2025-08-25 16h35.00.559194 +0530,
BLUE,blue,C,b,51,3,12,b,1,1.0750606000001426,None,12,3,51,3,56.77696990000004,,,,,,56.76247270000022,56.77696990000004,57.25797340000099,57.25797340000099,57.25797340000099,58.34178520000023,b,1,1.0750606000001426,None,,,,,925692,001,2025-08-25_16h34.56.728,Stroop Task,,2025.1.1,59.947725582824006,2025-08-25 16h35.00.559194 +0530,
BLUE,blue,C,b,52,0,13,b,1,0.40248539999993227,None,13,0,52,3,58.360069100001056,,,,,,58.34267340000042,58.360069100001056,58.84118649999982,58.84118649999982,58.84118649999982,59.25822690000132,b,1,0.40248539999993227,None,,,,,925692,001,2025-08-25_16h34.56.728,Stroop Task,,2025.1.1,59.947725582824006,2025-08-25 16h35.00.559194 +0530,
BLUE,red,I,r,53,1,13,r,1,0.6569502000002103,None,13,1,53,2,59.276965400000336,,,,,,59.25906209999994,59.276965400000336,59.75767030000134,59.75767030000134,59.75767030000134,60.42478800000026,r,1,0.6569502000002103,None,,,,,925692,001,2025-08-25_16h34.56.728,Stroop Task,,2025.1.1,59.947725582824006,2025-08-25 16h35.00.559194 +0530,
RED,blue,I,b,54,2,13,b,1,0.4963586000012583,None,13,2,54,1,60.44302680000146,,,,,,60.42858590000105,60.44302680000146,60.9241192999998,60.9241192999998,60.9241192999998,61.42446519999976,b,1,0.4963586000012583,None,,,,,925692,001,2025-08-25_16h34.56.728,Stroop Task,,2025.1.1,59.947725582824006,2025-08-25 16h35.00.559194 +0530,
RED,red,C,r,55,3,13,r,1,0.5317294999986188,None,13,3,55,0,61.442945300001156,,,,,,61.42529790000117,61.442945300001156,61.92406850000043,61.92406850000043,61.92406850000043,62.458012099999905,r,1,0.5317294999986188,None,,,,,925692,001,2025-08-25_16h34.56.728,Stroop Task,,2025.1.1,59.947725582824006,2025-08-25 16h35.00.559194 +0530,
BLUE,red,I,r,56,0,14,r,1,0.5593350999988616,None,14,0,56,2,62.47608860000037,,,,,,62.461808900001415,62.47608860000037,62.95717560000048,62.95717560000048,62.95717560000048,63.52437250000003,r,1,0.5593350999988616,None,,,,,925692,001,2025-08-25_16h34.56.728,Stroop Task,,2025.1.1,59.947725582824006,2025-08-25 16h35.00.559194 +0530,
BLUE,blue,C,b,57,1,14,b,1,0.42302460000064457,None,14,1,57,3,63.54292350000105,,,,,,63.525190100001055,63.54292350000105,64.02379199999996,64.02379199999996,64.02379199999996,64.45762240000113,b,1,0.42302460000064457,None,,,,,925692,001,2025-08-25_16h34.56.728,Stroop Task,,2025.1.1,59.947725582824006,2025-08-25 16h35.00.559194 +0530,
RED,red,C,r,58,2,14,r,1,0.44097160000092117,None,14,2,58,0,64.4758780000011,,,,,,64.46145550000074,64.4758780000011,64.9568949000004,64.9568949000004,64.9568949000004,65.40748140000142,r,1,0.44097160000092117,None,,,,,925692,001,2025-08-25_16h34.56.728,Stroop Task,,2025.1.1,59.947725582824006,2025-08-25 16h35.00.559194 +0530,
RED,blue,I,b,59,3,14,b,1,0.5368596000007528,None,14,3,59,1,65.42588350000005,,,,,,65.40830920000008,65.42588350000005,65.90687140000045,65.90687140000045,65.90687140000045,66.4573762,b,1,0.5368596000007528,None,,,,,925692,001,2025-08-25_16h34.56.728,Stroop Task,,2025.1.1,59.947725582824006,2025-08-25 16h35.00.559194 +0530,
RED,red,C,r,60,0,15,r,1,0.5168322999998054,None,15,0,60,0,66.4761021000013,,,,,,66.45819140000094,66.4761021000013,66.95669380000072,66.95669380000072,66.95669380000072,67.49062200000117,r,1,0.5168322999998054,None,,,,,925692,001,2025-08-25_16h34.56.728,Stroop Task,,2025.1.1,59.947725582824006,2025-08-25 16h35.00.559194 +0530,
BLUE,blue,C,b,61,1,15,b,1,0.4047090999993088,None,15,1,61,3,67.50921670000025,,,,,,67.4944873000004,67.50921670000025,67.98982179999985,67.98982179999985,67.98982179999985,68.40707180000027,b,1,0.4047090999993088,None,,,,,925692,001,2025-08-25_16h34.56.728,Stroop Task,,2025.1.1,59.947725582824006,2025-08-25 16h35.00.559194 +0530,
RED,blue,I,b,62,2,15,b,1,0.554037399999288,None,15,2,62,1,68.4253520000002,,,,,,68.41087100000004,68.4253520000002,68.90637130000141,68.90637130000141,68.90637130000141,69.47364040000139,b,1,0.554037399999288,None,,,,,925692,001,2025-08-25_16h34.56.728,Stroop Task,,2025.1.1,59.947725582824006,2025-08-25 16h35.00.559194 +0530,
BLUE,red,I,r,63,3,15,r,1,0.822107899999537,None,15,3,63,2,69.49186809999992,,,,,,69.4775335000013,69.49186809999992,69.97284730000138,69.97284730000138,69.97284730000138,70.80584570000065,r,1,0.822107899999537,None,,,,,925692,001,2025-08-25_16h34.56.728,Stroop Task,,2025.1.1,59.947725582824006,2025-08-25 16h35.00.559194 +0530,
RED,blue,I,b,64,0,16,b,1,0.5056618999988132,None,16,0,64,1,70.8249289000014,,,,,,70.80763959999967,70.8249289000014,71.3061370000014,71.3061370000014,71.3061370000014,71.82328720000078,b,1,0.5056618999988132,None,,,,,925692,001,2025-08-25_16h34.56.728,Stroop Task,,2025.1.1,59.947725582824006,2025-08-25 16h35.00.559194 +0530,
BLUE,blue,C,b,65,1,16,b,1,0.48982689999866125,None,16,1,65,3,71.8419001000002,,,,,,71.82741480000004,71.8419001000002,72.32262869999977,72.32262869999977,72.32262869999977,72.82324770000014,b,1,0.48982689999866125,None,,,,,925692,001,2025-08-25_16h34.56.728,Stroop Task,,2025.1.1,59.947725582824006,2025-08-25 16h35.00.559194 +0530,
BLUE,red,I,r,66,2,16,r,1,0.4753099999998085,None,16,2,66,2,72.84153460000016,,,,,,72.82405319999998,72.84153460000016,73.32259770000019,73.32259770000019,73.32259770000019,73.8065426000012,r,1,0.4753099999998085,None,,,,,925692,001,2025-08-25_16h34.56.728,Stroop Task,,2025.1.1,59.947725582824006,2025-08-25 16h35.00.559194 +0530,
RED,red,C,r,67,3,16,r,1,0.577799500000765,None,16,3,67,0,73.82465440000124,,,,,,73.81056610000087,73.82465440000124,74.30588510000052,74.30588510000052,74.30588510000052,74.8895807000008,r,1,0.577799500000765,None,,,,,925692,001,2025-08-25_16h34.56.728,Stroop Task,,2025.1.1,59.947725582824006,2025-08-25 16h35.00.559194 +0530,
BLUE,blue,C,b,68,0,17,b,1,0.37504509999962465,None,17,0,68,3,74.90832460000092,,,,,,74.89345330000106,74.90832460000092,75.38906120000138,75.38906120000138,75.38906120000138,75.77296390000083,b,1,0.37504509999962465,None,,,,,925692,001,2025-08-25_16h34.56.728,Stroop Task,,2025.1.1,59.947725582824006,2025-08-25 16h35.00.559194 +0530,
RED,blue,I,b,69,1,17,b,1,0.48184930000024906,None,17,1,69,1,75.7911933000014,,,,,,75.77688130000024,75.7911933000014,76.2722431000002,76.2722431000002,76.2722431000002,76.7561053999998,b,1,0.48184930000024906,None,,,,,925692,001,2025-08-25_16h34.56.728,Stroop Task,,2025.1.1,59.947725582824006,2025-08-25 16h35.00.559194 +0530,
BLUE,red,I,r,70,2,17,r,1,0.6340351999988343,None,17,2,70,2,76.77437800000007,,,,,,76.76045580000027,76.77437800000007,77.25543860000107,77.25543860000107,77.25543860000107,77.90586780000012,r,1,0.6340351999988343,None,,,,,925692,001,2025-08-25_16h34.56.728,Stroop Task,,2025.1.1,59.947725582824006,2025-08-25 16h35.00.559194 +0530,
RED,red,C,r,71,3,17,r,1,0.3106512999984261,None,17,3,71,0,77.92465559999982,,,,,,77.9097395000008,77.92465559999982,78.40524580000056,78.40524580000056,78.40524580000056,78.72251080000024,r,1,0.3106512999984261,None,,,,,925692,001,2025-08-25_16h34.56.728,Stroop Task,,2025.1.1,59.947725582824006,2025-08-25 16h35.00.559194 +0530,
RED,red,C,r,72,0,18,r,1,0.37548509999942326,None,18,0,72,0,78.74115320000055,,,,,,78.72332129999995,78.74115320000055,79.22176279999985,79.22176279999985,79.22176279999985,79.60545620000084,r,1,0.37548509999942326,None,,,,,925692,001,2025-08-25_16h34.56.728,Stroop Task,,2025.1.1,59.947725582824006,2025-08-25 16h35.00.559194 +0530,
BLUE,red,I,r,73,1,18,r,1,0.5818058999993809,None,18,1,73,2,79.62390779999987,,,,,,79.6092735000002,79.62390779999987,80.10511300000144,80.10511300000144,80.10511300000144,80.68902929999967,r,1,0.5818058999993809,None,,,,,925692,001,2025-08-25_16h34.56.728,Stroop Task,,2025.1.1,59.947725582824006,2025-08-25 16h35.00.559194 +0530,
RED,blue,I,b,74,2,18,b,1,0.4499753000000055,None,18,2,74,1,80.70727640000041,,,,,,80.69290499999988,80.70727640000041,81.1879654000004,81.1879654000004,81.1879654000004,81.63863240000137,b,1,0.4499753000000055,None,,,,,925692,001,2025-08-25_16h34.56.728,Stroop Task,,2025.1.1,59.947725582824006,2025-08-25 16h35.00.559194 +0530,
BLUE,blue,C,b,75,3,18,b,1,0.325561600000583,None,18,3,75,3,81.65697040000123,,,,,,81.64263870000104,81.65697040000123,82.13768280000113,82.13768280000113,82.13768280000113,82.47196450000047,b,1,0.325561600000583,None,,,,,925692,001,2025-08-25_16h34.56.728,Stroop Task,,2025.1.1,59.947725582824006,2025-08-25 16h35.00.559194 +0530,
BLUE,blue,C,b,76,0,19,b,1,0.39219950000006065,None,19,0,76,3,82.4907105000002,,,,,,82.47277630000099,82.4907105000002,82.97128030000022,82.97128030000022,82.97128030000022,83.37146070000017,b,1,0.39219950000006065,None,,,,,925692,001,2025-08-25_16h34.56.728,Stroop Task,,2025.1.1,59.947725582824006,2025-08-25 16h35.00.559194 +0530,
BLUE,red,I,r,77,1,19,r,1,0.537746199999674,None,19,1,77,2,83.39052720000109,,,,,,83.3722902999998,83.39052720000109,83.87135630000012,83.87135630000012,83.87135630000012,84.42172180000125,r,1,0.537746199999674,None,,,,,925692,001,2025-08-25_16h34.56.728,Stroop Task,,2025.1.1,59.947725582824006,2025-08-25 16h35.00.559194 +0530,
RED,blue,I,b,78,2,19,b,1,0.5239246000001003,None,19,2,78,1,84.43993690000025,,,,,,84.42563410000002,84.43993690000025,84.92105240000092,84.92105240000092,84.92105240000092,85.45486239999991,b,1,0.5239246000001003,None,,,,,925692,001,2025-08-25_16h34.56.728,Stroop Task,,2025.1.1,59.947725582824006,2025-08-25 16h35.00.559194 +0530,
RED,red,C,r,79,3,19,r,1,0.4955396000004839,None,19,3,79,0,85.47325600000113,,,,,,85.45567149999988,85.47325600000113,85.95431110000027,85.95431110000027,85.95431110000027,86.45448940000097,r,1,0.4955396000004839,None,,,,,925692,001,2025-08-25_16h34.56.728,Stroop Task,,2025.1.1,59.947725582824006,2025-08-25 16h35.00.559194 +0530,
RED,blue,I,b,80,0,20,b,1,0.5963603999989573,None,20,0,80,1,86.4735827000004,,,,,,86.45552660000067,86.4735827000004,86.95427600000039,86.95427600000039,86.95427600000039,87.55467370000042,b,1,0.5963603999989573,None,,,,,925692,001,2025-08-25_16h34.56.728,Stroop Task,,2025.1.1,59.947725582824006,2025-08-25 16h35.00.559194 +0530,
BLUE,blue,C,b,81,1,20,b,1,0.7527054000001954,None,20,1,81,3,87.57283710000047,,,,,,87.55852589999995,87.57283710000047,88.053989,88.053989,88.053989,88.82078340000044,b,1,0.7527054000001954,None,,,,,925692,001,2025-08-25_16h34.56.728,Stroop Task,,2025.1.1,59.947725582824006,2025-08-25 16h35.00.559194 +0530,
RED,red,C,r,82,2,20,r,1,0.5221555999996781,None,20,2,82,0,88.83929180000086,,,,,,88.825157700001,88.83929180000086,89.32040120000056,89.32040120000056,89.32040120000056,89.8542780000007,r,1,0.5221555999996781,None,,,,,925692,001,2025-08-25_16h34.56.728,Stroop Task,,2025.1.1,59.947725582824006,2025-08-25 16h35.00.559194 +0530,
BLUE,red,I,r,83,3,20,r,1,1.160244500000772,None,20,3,83,2,89.87266030000137,,,,,,89.85809440000048,89.87266030000137,90.35331320000114,90.35331320000114,90.35331320000114,91.5208046000007,r,1,1.160244500000772,None,,,,,925692,001,2025-08-25_16h34.56.728,Stroop Task,,2025.1.1,59.947725582824006,2025-08-25 16h35.00.559194 +0530,
BLUE,red,I,r,84,0,21,r,1,0.5662127000014152,None,21,0,84,2,91.5394322000011,,,,,,91.5216134000002,91.5394322000011,92.02018950000092,92.02018950000092,92.02018950000092,92.58718730000146,r,1,0.5662127000014152,None,,,,,925692,001,2025-08-25_16h34.56.728,Stroop Task,,2025.1.1,59.947725582824006,2025-08-25 16h35.00.559194 +0530,
RED,red,C,r,85,1,21,r,1,0.6323620000002848,None,21,1,85,0,92.60553880000043,,,,,,92.59098290000111,92.60553880000043,93.08671570000115,93.08671570000115,93.08671570000115,93.72056840000005,r,1,0.6323620000002848,None,,,,,925692,001,2025-08-25_16h34.56.728,Stroop Task,,2025.1.1,59.947725582824006,2025-08-25 16h35.00.559194 +0530,
RED,blue,I,b,86,2,21,b,1,0.4650439000015467,None,21,2,86,1,93.7387920000001,,,,,,93.72137530000145,93.7387920000001,94.21975449999991,94.21975449999991,94.21975449999991,94.68701760000113,b,1,0.4650439000015467,None,,,,,925692,001,2025-08-25_16h34.56.728,Stroop Task,,2025.1.1,59.947725582824006,2025-08-25 16h35.00.559194 +0530,
BLUE,blue,C,b,87,3,21,b,1,0.768853699999454,None,21,3,87,3,94.7052990000011,,,,,,94.69094539999969,94.7052990000011,95.18643669999983,95.18643669999983,95.18643669999983,95.97037100000125,b,1,0.768853699999454,None,,,,,925692,001,2025-08-25_16h34.56.728,Stroop Task,,2025.1.1,59.947725582824006,2025-08-25 16h35.00.559194 +0530,
RED,blue,I,b,88,0,22,b,1,0.35128379999878234,None,22,0,88,1,95.98846950000006,,,,,,95.97423590000108,95.98846950000006,96.4697496000008,96.4697496000008,96.4697496000008,96.83687819999977,b,1,0.35128379999878234,None,,,,,925692,001,2025-08-25_16h34.56.728,Stroop Task,,2025.1.1,59.947725582824006,2025-08-25 16h35.00.559194 +0530,
BLUE,red,I,r,89,1,22,r,1,0.5560559000005014,None,22,1,89,2,96.85523220000141,,,,,,96.84069770000133,96.85523220000141,97.3358747000002,97.3358747000002,97.3358747000002,97.9032399000007,r,1,0.5560559000005014,None,,,,,925692,001,2025-08-25_16h34.56.728,Stroop Task,,2025.1.1,59.947725582824006,2025-08-25 16h35.00.559194 +0530,
RED,red,C,r,90,2,22,r,1,0.470396200000323,None,22,2,90,0,97.92164530000082,,,,,,97.90700130000005,97.92164530000082,98.40250540000125,98.40250540000125,98.40250540000125,98.88649190000069,r,1,0.470396200000323,None,,,,,925692,001,2025-08-25_16h34.56.728,Stroop Task,,2025.1.1,59.947725582824006,2025-08-25 16h35.00.559194 +0530,
BLUE,blue,C,b,91,3,22,b,1,0.6367814999994152,None,22,3,91,3,98.90482110000085,,,,,,98.89034320000064,98.90482110000085,99.385905000001,99.385905000001,99.385905000001,100.03634390000116,b,1,0.6367814999994152,None,,,,,925692,001,2025-08-25_16h34.56.728,Stroop Task,,2025.1.1,59.947725582824006,2025-08-25 16h35.00.559194 +0530,
RED,blue,I,b,92,0,23,b,1,0.7285015999987081,None,23,0,92,1,100.05477489999976,,,,,,100.04025700000057,100.05477489999976,100.53579450000143,100.53579450000143,100.53579450000143,101.26951440000084,b,1,0.7285015999987081,None,,,,,925692,001,2025-08-25_16h34.56.728,Stroop Task,,2025.1.1,59.947725582824006,2025-08-25 16h35.00.559194 +0530,
BLUE,red,I,r,93,1,23,r,1,0.5151181000001088,None,23,1,93,2,101.28773619999993,,,,,,101.27387960000124,101.28773619999993,101.76899920000142,101.76899920000142,101.76899920000142,102.28627330000018,r,1,0.5151181000001088,None,,,,,925692,001,2025-08-25_16h34.56.728,Stroop Task,,2025.1.1,59.947725582824006,2025-08-25 16h35.00.559194 +0530,
RED,red,C,r,94,2,23,r,1,0.891526999999769,None,23,2,94,0,102.30444689999968,,,,,,102.29038420000143,102.30444689999968,102.78535440000087,102.78535440000087,102.78535440000087,103.68588330000057,r,1,0.891526999999769,None,,,,,925692,001,2025-08-25_16h34.56.728,Stroop Task,,2025.1.1,59.947725582824006,2025-08-25 16h35.00.559194 +0530,
BLUE,blue,C,b,95,3,23,b,1,0.5061117999994167,None,23,3,95,3,103.70412390000092,,,,,,103.68986510000104,103.70412390000092,104.18521990000045,104.18521990000045,104.18521990000045,104.70244490000005,b,1,0.5061117999994167,None,,,,,925692,001,2025-08-25_16h34.56.728,Stroop Task,,2025.1.1,59.947725582824006,2025-08-25 16h35.00.559194 +0530,
RED,blue,I,b,96,0,24,b,1,0.540255599999,None,24,0,96,1,104.72080310000092,,,,,,104.70625660000042,104.72080310000092,105.2018392000009,105.2018392000009,105.2018392000009,105.75252990000081,b,1,0.540255599999,None,,,,,925692,001,2025-08-25_16h34.56.728,Stroop Task,,2025.1.1,59.947725582824006,2025-08-25 16h35.00.559194 +0530,
BLUE,blue,C,b,97,1,24,b,1,0.3769812999998976,None,24,1,97,3,105.77096820000042,,,,,,105.75640870000097,105.77096820000042,106.25154680000014,106.25154680000014,106.25154680000014,106.63551259999986,b,1,0.3769812999998976,None,,,,,925692,001,2025-08-25_16h34.56.728,Stroop Task,,2025.1.1,59.947725582824006,2025-08-25 16h35.00.559194 +0530,
RED,red,C,r,98,2,24,r,1,0.38257419999899867,None,24,2,98,0,106.65406940000139,,,,,,106.63938370000142,106.65406940000139,107.13472150000052,107.13472150000052,107.13472150000052,107.5187517000013,r,1,0.38257419999899867,None,,,,,925692,001,2025-08-25_16h34.56.728,Stroop Task,,2025.1.1,59.947725582824006,2025-08-25 16h35.00.559194 +0530,
BLUE,red,I,r,99,3,24,r,1,0.7907027000001108,None,24,3,99,2,107.53732339999988,,,,,,107.52263920000041,107.53732339999988,108.01794169999994,108.01794169999994,108.01794169999994,108.81856719999996,r,1,0.7907027000001108,None,,,,,925692,001,2025-08-25_16h34.56.728,Stroop Task,,2025.1.1,59.947725582824006,2025-08-25 16h35.00.559194 +0530,
,,,,,,,,,,,,,,,,,,,,,,,,,,,,,,,108.81874210000024,108.83468100000027,109.83452360000047,109.81823059999988,925692,001,2025-08-25_16h34.56.728,Stroop Task,,2025.1.1,59.947725582824006,2025-08-25 16h35.00.559194 +0530,
