reward_today,future_reward,delay,thisN,thisTrialN,thisRepN,key_resp.keys,key_resp.rt,key_resp.duration,trials.thisRepN,trials.thisTrialN,trials.thisN,trials.thisIndex,thisRow.t,notes,Welcome.started,text_2.started,Welcome.stopped,trial.started,fixation.started,text.started,key_resp.started,fixation.stopped,trial.stopped,trials.key_resp.keys,trials.key_resp.rt,trials.key_resp.duration,thank_you.started,thank_you.stopped,participant,session,date,expName,expVersion,psychopyVersion,frameRate,expStart,
,,,,,,,,,,,,,,,0.018956399988383055,0.03591959993354976,4.002960099955089,,,,,,,,,,,,3,001,2025-10-31_13h18.06.870,Delay discounting,,2025.1.1,60.25119930504574,2025-10-31 13h18.11.961902 +0530,
19,50,77,0,0,0,t,7.223586900043301,None,0,0,0,49,4.03419319994282,,,,,4.027876199921593,4.03419319994282,5.002486899960786,5.002486899960786,5.036234900006093,12.24370320001617,t,7.223586900043301,None,,,3,001,2025-10-31_13h18.06.870,Delay discounting,,2025.1.1,60.25119930504574,2025-10-31 13h18.11.961902 +0530,
46,102,84,1,1,0,l,1.8762812999775633,None,0,1,1,84,12.267640499980189,,,,,12.255810900009237,12.267640499980189,13.251889399951324,13.251889399951324,13.268821300007403,15.13543889997527,l,1.8762812999775633,None,,,3,001,2025-10-31_13h18.06.870,Delay discounting,,2025.1.1,60.25119930504574,2025-10-31 13h18.11.961902 +0530,
30,70,25,2,2,0,l,2.469799099955708,None,0,2,2,51,15.151562699931674,,,,,15.143191599985585,15.151562699931674,16.13476459996309,16.13476459996309,16.15115439996589,18.618419599952176,l,2.469799099955708,None,,,3,001,2025-10-31_13h18.06.870,Delay discounting,,2025.1.1,60.25119930504574,2025-10-31 13h18.11.961902 +0530,
48,105,143,3,3,0,l,6.096092000021599,None,0,3,3,59,18.63491379993502,,,,,18.624125699978322,18.63491379993502,19.617316799936816,19.617316799936816,19.634491799981333,25.717776599922217,l,6.096092000021599,None,,,3,001,2025-10-31_13h18.06.870,Delay discounting,,2025.1.1,60.25119930504574,2025-10-31 13h18.11.961902 +0530,
57,82,118,4,4,0,l,1.312402999959886,None,0,4,4,25,25.73395519994665,,,,,25.72369609994348,25.73395519994665,26.71739429992158,26.71739429992158,26.73383029992692,28.03414080000948,l,1.312402999959886,None,,,3,001,2025-10-31_13h18.06.870,Delay discounting,,2025.1.1,60.25119930504574,2025-10-31 13h18.11.961902 +0530,
53,98,88,5,5,0,t,3.2207752000540495,None,0,5,5,63,28.050285600009374,,,,,28.039766800007783,28.050285600009374,29.03236549999565,29.03236549999565,29.066574499942362,32.26650869997684,t,3.2207752000540495,None,,,3,001,2025-10-31_13h18.06.870,Delay discounting,,2025.1.1,60.25119930504574,2025-10-31 13h18.11.961902 +0530,
16,45,85,6,6,0,l,3.0036418000236154,None,0,6,6,16,32.28248419996817,,,,,32.272605899954215,32.28248419996817,33.26596609991975,33.26596609991975,33.28271679999307,36.28319839993492,l,3.0036418000236154,None,,,3,001,2025-10-31_13h18.06.870,Delay discounting,,2025.1.1,60.25119930504574,2025-10-31 13h18.11.961902 +0530,
60,101,120,7,7,0,t,6.015041399979964,None,0,7,7,20,36.298594199935906,,,,,36.288679699995555,36.298594199935906,37.298755099996924,37.298755099996924,37.298755099996924,43.31524809997063,t,6.015041399979964,None,,,3,001,2025-10-31_13h18.06.870,Delay discounting,,2025.1.1,60.25119930504574,2025-10-31 13h18.11.961902 +0530,
75,112,103,8,8,0,l,1.6500997999683022,None,0,8,8,54,43.33088699996006,,,,,43.321072899969295,43.33088699996006,44.31469989998732,44.31469989998732,44.331232699914835,45.98098889994435,l,1.6500997999683022,None,,,3,001,2025-10-31_13h18.06.870,Delay discounting,,2025.1.1,60.25119930504574,2025-10-31 13h18.11.961902 +0530,
68,81,73,9,9,0,l,4.396945999935269,None,0,9,9,35,45.99744730000384,,,,,45.98641669994686,45.99744730000384,46.980927699944004,46.980927699944004,46.99767369998153,51.380824299994856,l,4.396945999935269,None,,,3,001,2025-10-31_13h18.06.870,Delay discounting,,2025.1.1,60.25119930504574,2025-10-31 13h18.11.961902 +0530,
40,88,137,10,10,0,t,7.153831099974923,None,0,10,10,9,51.39640159998089,,,,,51.38675539998803,51.39640159998089,52.3796030000085,52.3796030000085,52.396274099941365,59.54661019996274,t,7.153831099974923,None,,,3,001,2025-10-31_13h18.06.870,Delay discounting,,2025.1.1,60.25119930504574,2025-10-31 13h18.11.961902 +0530,
36,64,31,11,11,0,l,4.9909772999817505,None,0,11,11,58,59.56228449998889,,,,,59.552236899966374,59.56228449998889,60.54594629991334,60.54594629991334,60.56252739997581,65.5458881999366,l,4.9909772999817505,None,,,3,001,2025-10-31_13h18.06.870,Delay discounting,,2025.1.1,60.25119930504574,2025-10-31 13h18.11.961902 +0530,
79,118,144,12,12,0,t,3.926948199979961,None,0,12,12,39,65.56119429995306,,,,,65.55198899994139,65.56119429995306,66.56188489997294,66.56188489997294,66.56188489997294,70.49474290001672,t,3.926948199979961,None,,,3,001,2025-10-31_13h18.06.870,Delay discounting,,2025.1.1,60.25119930504574,2025-10-31 13h18.11.961902 +0530,
76,124,162,13,13,0,t,1.6576063999673352,None,0,13,13,94,70.51089899998624,,,,,70.50013099994976,70.51089899998624,71.49457019998226,71.49457019998226,71.51088319998235,73.16190539998934,t,1.6576063999673352,None,,,3,001,2025-10-31_13h18.06.870,Delay discounting,,2025.1.1,60.25119930504574,2025-10-31 13h18.11.961902 +0530,
62,91,118,14,14,0,t,3.330383300082758,None,0,14,14,74,73.17718300002161,,,,,73.16825689992402,73.17718300002161,74.17744040000252,74.17744040000252,74.17744040000252,77.51102149998769,t,3.330383300082758,None,,,3,001,2025-10-31_13h18.06.870,Delay discounting,,2025.1.1,60.25119930504574,2025-10-31 13h18.11.961902 +0530,
46,100,88,15,15,0,l,1.0081425999524072,None,0,15,15,40,77.52620520000346,,,,,77.51533169997856,77.52620520000346,78.52681259997189,78.52681259997189,78.52681259997189,79.54361819999758,l,1.0081425999524072,None,,,3,001,2025-10-31_13h18.06.870,Delay discounting,,2025.1.1,60.25119930504574,2025-10-31 13h18.11.961902 +0530,
19,50,82,16,16,0,l,1.6439566999906674,None,0,16,16,31,79.55970280000474,,,,,79.54994729999453,79.55970280000474,80.5434121999424,80.5434121999424,80.55971129995305,82.1938216999406,l,1.6439566999906674,None,,,3,001,2025-10-31_13h18.06.870,Delay discounting,,2025.1.1,60.25119930504574,2025-10-31 13h18.11.961902 +0530,
38,65,177,17,17,0,t,1.8127827999414876,None,0,17,17,57,82.20950509991962,,,,,82.19899850001093,82.20950509991962,83.20958809996955,83.20958809996955,83.20958809996955,85.02666119998321,t,1.8127827999414876,None,,,3,001,2025-10-31_13h18.06.870,Delay discounting,,2025.1.1,60.25119930504574,2025-10-31 13h18.11.961902 +0530,
62,88,98,18,18,0,t,1.5435667000710964,None,0,18,18,79,85.04235759994481,,,,,85.03282159997616,85.04235759994481,86.026097199996,86.026097199996,86.04274579999037,87.57615570002235,t,1.5435667000710964,None,,,3,001,2025-10-31_13h18.06.870,Delay discounting,,2025.1.1,60.25119930504574,2025-10-31 13h18.11.961902 +0530,
32,73,58,19,19,0,l,1.64050789992325,None,0,19,19,66,87.59176580002531,,,,,87.58161669992842,87.59176580002531,88.57560039998498,88.57560039998498,88.59196069999598,90.22594609996304,l,1.64050789992325,None,,,3,001,2025-10-31_13h18.06.870,Delay discounting,,2025.1.1,60.25119930504574,2025-10-31 13h18.11.961902 +0530,
61,114,97,20,20,0,l,1.1561085999710485,None,0,20,20,43,90.24163880001288,,,,,90.2315845999401,90.24163880001288,91.22532680002041,91.22532680002041,91.24187509994954,92.39181579998694,l,1.1561085999710485,None,,,3,001,2025-10-31_13h18.06.870,Delay discounting,,2025.1.1,60.25119930504574,2025-10-31 13h18.11.961902 +0530,
81,125,130,21,21,0,t,1.9570287999231368,None,0,21,21,48,92.40803479996976,,,,,92.39736780000385,92.40803479996976,93.39189440000337,93.39189440000337,93.40790819993708,95.35800100001507,t,1.9570287999231368,None,,,3,001,2025-10-31_13h18.06.870,Delay discounting,,2025.1.1,60.25119930504574,2025-10-31 13h18.11.961902 +0530,
29,52,67,22,22,0,l,2.6084625999210402,None,0,22,22,29,95.37409719999414,,,,,95.36357950000092,95.37409719999414,96.35787860001437,96.35787860001437,96.37452189996839,98.9746879999293,l,2.6084625999210402,None,,,3,001,2025-10-31_13h18.06.870,Delay discounting,,2025.1.1,60.25119930504574,2025-10-31 13h18.11.961902 +0530,
65,93,97,23,23,0,l,1.8582336000399664,None,0,23,23,23,98.9902692999458,,,,,98.98014020000119,98.9902692999458,99.97434219997376,99.97434219997376,99.99071809998713,101.84144909994211,l,1.8582336000399664,None,,,3,001,2025-10-31_13h18.06.870,Delay discounting,,2025.1.1,60.25119930504574,2025-10-31 13h18.11.961902 +0530,
50,90,117,24,24,0,t,12.659214699990116,None,0,24,24,7,101.85675299994182,,,,,101.84730010002386,101.85675299994182,102.85686930001248,102.85686930001248,102.85686930001248,115.52258879994042,t,12.659214699990116,None,,,3,001,2025-10-31_13h18.06.870,Delay discounting,,2025.1.1,60.25119930504574,2025-10-31 13h18.11.961902 +0530,
63,111,167,25,25,0,t,3.0460316000971943,None,0,25,25,32,115.53817399998661,,,,,115.52789709996432,115.53817399998661,116.52189650002401,116.52189650002401,116.53841599996667,119.57224010000937,t,3.0460316000971943,None,,,3,001,2025-10-31_13h18.06.870,Delay discounting,,2025.1.1,60.25119930504574,2025-10-31 13h18.11.961902 +0530,
19,34,21,26,26,0,l,2.659396200091578,None,0,26,26,22,119.5877795999404,,,,,119.57841900002677,119.5877795999404,120.57132739992812,120.57132739992812,120.58810599998105,123.23805980000179,l,2.659396200091578,None,,,3,001,2025-10-31_13h18.06.870,Delay discounting,,2025.1.1,60.25119930504574,2025-10-31 13h18.11.961902 +0530,
29,80,46,27,27,0,l,1.1484405000228435,None,0,27,27,62,123.25389299995732,,,,,123.24364439991768,123.25389299995732,124.23796309996396,124.23796309996396,124.25413639994804,125.38783070002683,l,1.1484405000228435,None,,,3,001,2025-10-31_13h18.06.870,Delay discounting,,2025.1.1,60.25119930504574,2025-10-31 13h18.11.961902 +0530,
11,30,7,28,28,0,l,0.9960323000559583,None,0,28,28,0,125.40303689998109,,,,,125.39390139991883,125.40303689998109,126.38735839992296,126.38735839992296,126.40399419993628,127.38772469991818,l,0.9960323000559583,None,,,3,001,2025-10-31_13h18.06.870,Delay discounting,,2025.1.1,60.25119930504574,2025-10-31 13h18.11.961902 +0530,
38,60,32,29,29,0,l,1.6925198000390083,None,0,29,29,8,127.40332059992943,,,,,127.39316759991925,127.40332059992943,128.3874133999925,128.3874133999925,128.4036537000211,130.0872028999729,l,1.6925198000390083,None,,,3,001,2025-10-31_13h18.06.870,Delay discounting,,2025.1.1,60.25119930504574,2025-10-31 13h18.11.961902 +0530,
36,63,31,30,30,0,l,1.2595501000760123,None,0,30,30,97,130.1027854999993,,,,,130.0926231999183,130.1027854999993,131.08685750002041,131.08685750002041,131.1034458000213,132.35375399992336,l,1.2595501000760123,None,,,3,001,2025-10-31_13h18.06.870,Delay discounting,,2025.1.1,60.25119930504574,2025-10-31 13h18.11.961902 +0530,
42,64,29,31,31,0,l,1.1186064999783412,None,0,31,31,55,132.36929709999822,,,,,132.35913649993017,132.36929709999822,133.3529860000126,133.3529860000126,133.36959979997482,134.48671760002617,l,1.1186064999783412,None,,,3,001,2025-10-31_13h18.06.870,Delay discounting,,2025.1.1,60.25119930504574,2025-10-31 13h18.11.961902 +0530,
26,58,19,32,32,0,l,0.9363819999853149,None,0,32,32,38,134.50244059995748,,,,,134.49242799996864,134.50244059995748,135.4864201999735,135.4864201999735,135.50294809998013,136.43648349994328,l,0.9363819999853149,None,,,3,001,2025-10-31_13h18.06.870,Delay discounting,,2025.1.1,60.25119930504574,2025-10-31 13h18.11.961902 +0530,
55,80,156,33,33,0,l,1.9535474999574944,None,0,33,33,37,136.45201190002263,,,,,136.4417166999774,136.45201190002263,137.43596739997156,137.43596739997156,137.4520905999234,139.40278130001388,l,1.9535474999574944,None,,,3,001,2025-10-31_13h18.06.870,Delay discounting,,2025.1.1,60.25119930504574,2025-10-31 13h18.11.961902 +0530,
44,87,28,34,34,0,t,1.8797689999919385,None,0,34,34,76,139.4178473999491,,,,,139.4070372999413,139.4178473999491,140.40198450000025,140.40198450000025,140.41895949991886,142.28606399998534,t,1.8797689999919385,None,,,3,001,2025-10-31_13h18.06.870,Delay discounting,,2025.1.1,60.25119930504574,2025-10-31 13h18.11.961902 +0530,
60,101,81,35,35,0,l,3.0133394000586122,None,0,35,35,67,142.30172959994525,,,,,142.29135309997946,142.30172959994525,143.28518559993245,143.28518559993245,143.30197539995424,146.30179559998214,l,3.0133394000586122,None,,,3,001,2025-10-31_13h18.06.870,Delay discounting,,2025.1.1,60.25119930504574,2025-10-31 13h18.11.961902 +0530,
27,62,53,36,36,0,t,19.630288899992593,None,0,36,36,47,146.3176299999468,,,,,146.30765159998555,146.3176299999468,147.30083459999878,147.30083459999878,147.31792529998347,166.93255219992716,t,19.630288899992593,None,,,3,001,2025-10-31_13h18.06.870,Delay discounting,,2025.1.1,60.25119930504574,2025-10-31 13h18.11.961902 +0530,
33,65,44,37,37,0,l,1.3012179000070319,None,0,37,37,89,166.94764509995002,,,,,166.93693800002802,166.94764509995002,167.9320247999858,167.9320247999858,167.9484546999447,169.24904459994286,l,1.3012179000070319,None,,,3,001,2025-10-31_13h18.06.870,Delay discounting,,2025.1.1,60.25119930504574,2025-10-31 13h18.11.961902 +0530,
67,110,107,38,38,0,l,1.4561799999792129,None,0,38,38,61,169.26473819999956,,,,,169.25519369996618,169.26473819999956,170.2482936999295,170.2482936999295,170.264629399986,171.71491330000572,l,1.4561799999792129,None,,,3,001,2025-10-31_13h18.06.870,Delay discounting,,2025.1.1,60.25119930504574,2025-10-31 13h18.11.961902 +0530,
34,61,180,39,39,0,t,2.2160687999567017,None,0,39,39,17,171.73066469992045,,,,,171.72007479995955,171.73066469992045,172.71474429999944,172.71474429999944,172.7311532999156,174.93150810000952,t,2.2160687999567017,None,,,3,001,2025-10-31_13h18.06.870,Delay discounting,,2025.1.1,60.25119930504574,2025-10-31 13h18.11.961902 +0530,
14,52,48,40,40,0,l,1.4659715000307187,None,0,40,40,44,174.9470945999492,,,,,174.93762739992235,174.9470945999492,175.93143719993532,175.93143719993532,175.94769449997693,177.4143846000079,l,1.4659715000307187,None,,,3,001,2025-10-31_13h18.06.870,Delay discounting,,2025.1.1,60.25119930504574,2025-10-31 13h18.11.961902 +0530,
40,55,62,41,41,0,t,3.0920308000640944,None,0,41,41,3,177.4307179999305,,,,,177.4199916999787,177.4307179999305,178.4134051000001,178.4134051000001,178.43059749994427,181.51409860001877,t,3.0920308000640944,None,,,3,001,2025-10-31_13h18.06.870,Delay discounting,,2025.1.1,60.25119930504574,2025-10-31 13h18.11.961902 +0530,
33,76,54,42,42,0,t,2.2524787998991087,None,0,42,42,33,181.52955650002696,,,,,181.5201870999299,181.52955650002696,182.53021939995233,182.53021939995233,182.53021939995233,184.79721819993574,t,2.2524787998991087,None,,,3,001,2025-10-31_13h18.06.870,Delay discounting,,2025.1.1,60.25119930504574,2025-10-31 13h18.11.961902 +0530,
41,62,25,43,43,0,l,1.791402200004086,None,0,43,43,93,184.81267309992108,,,,,184.802600099938,184.81267309992108,185.8128829000052,185.8128829000052,185.8128829000052,187.61319519998506,l,1.791402200004086,None,,,3,001,2025-10-31_13h18.06.870,Delay discounting,,2025.1.1,60.25119930504574,2025-10-31 13h18.11.961902 +0530,
36,95,138,44,44,0,t,2.0591416000388563,None,0,44,44,46,187.62872169993352,,,,,187.6189339000266,187.62872169993352,188.6126289999811,188.6126289999811,188.62923959991895,190.6793733999366,t,2.0591416000388563,None,,,3,001,2025-10-31_13h18.06.870,Delay discounting,,2025.1.1,60.25119930504574,2025-10-31 13h18.11.961902 +0530,
21,60,11,45,45,0,l,2.309749100008048,None,0,45,45,53,190.69473719992675,,,,,190.68483369995374,190.69473719992675,191.67897819995414,191.67897819995414,191.69549319997896,193.9958273000084,l,2.309749100008048,None,,,3,001,2025-10-31_13h18.06.870,Delay discounting,,2025.1.1,60.25119930504574,2025-10-31 13h18.11.961902 +0530,
16,39,19,46,46,0,l,6.246701400028542,None,0,46,46,91,194.01137059996836,,,,,194.00082399998792,194.01137059996836,195.01141099992674,195.01141099992674,195.01141099992674,201.26160740002524,l,6.246701400028542,None,,,3,001,2025-10-31_13h18.06.870,Delay discounting,,2025.1.1,60.25119930504574,2025-10-31 13h18.11.961902 +0530,
68,112,136,47,47,0,l,2.142350099980831,None,0,47,47,77,201.27728339994792,,,,,201.26689219998661,201.27728339994792,202.2776999999769,202.2776999999769,202.2776999999769,204.42759320000187,l,2.142350099980831,None,,,3,001,2025-10-31_13h18.06.870,Delay discounting,,2025.1.1,60.25119930504574,2025-10-31 13h18.11.961902 +0530,
43,110,133,48,48,0,l,1.4471785000059754,None,0,48,48,88,204.44324569997843,,,,,204.43342100002337,204.44324569997843,205.44364720000885,205.44364720000885,205.44364720000885,206.89418159995694,l,1.4471785000059754,None,,,3,001,2025-10-31_13h18.06.870,Delay discounting,,2025.1.1,60.25119930504574,2025-10-31 13h18.11.961902 +0530,
59,89,37,49,49,0,l,3.2958989999024197,None,0,49,49,72,206.9098268999951,,,,,206.8995675999904,206.9098268999951,207.89320849999785,207.89320849999785,207.91015689994674,211.19299709994812,l,3.2958989999024197,None,,,3,001,2025-10-31_13h18.06.870,Delay discounting,,2025.1.1,60.25119930504574,2025-10-31 13h18.11.961902 +0530,
63,100,75,50,50,0,t,3.3174421000294387,None,0,50,50,99,211.20886939996853,,,,,211.19593359995633,211.20886939996853,212.20872450002935,212.20872450002935,212.20872450002935,215.54285999992862,t,3.3174421000294387,None,,,3,001,2025-10-31_13h18.06.870,Delay discounting,,2025.1.1,60.25119930504574,2025-10-31 13h18.11.961902 +0530,
73,107,127,51,51,0,t,11.628029300016351,None,0,51,51,27,215.55940269993152,,,,,215.54824369994458,215.55940269993152,216.5422459000256,216.5422459000256,216.55908679997083,228.17457239993382,t,11.628029300016351,None,,,3,001,2025-10-31_13h18.06.870,Delay discounting,,2025.1.1,60.25119930504574,2025-10-31 13h18.11.961902 +0530,
47,84,121,52,52,0,l,1.7814023999962956,None,0,52,52,45,228.19015029992443,,,,,228.18050279992167,228.19015029992443,229.17452659993432,229.17452659993432,229.19080270000268,230.95830059994478,l,1.7814023999962956,None,,,3,001,2025-10-31_13h18.06.870,Delay discounting,,2025.1.1,60.25119930504574,2025-10-31 13h18.11.961902 +0530,
26,58,19,53,53,0,l,1.6440976000158116,None,0,53,53,75,230.97347079997417,,,,,230.9639078999171,230.97347079997417,231.9735498999944,231.9735498999944,231.9735498999944,233.62426660000347,l,1.6440976000158116,None,,,3,001,2025-10-31_13h18.06.870,Delay discounting,,2025.1.1,60.25119930504574,2025-10-31 13h18.11.961902 +0530,
14,48,48,54,54,0,l,7.4231328999157995,None,0,54,54,24,233.63972269999795,,,,,233.63031779997982,233.63972269999795,234.6400213999441,234.6400213999441,234.6400213999441,242.0731104000006,l,7.4231328999157995,None,,,3,001,2025-10-31_13h18.06.870,Delay discounting,,2025.1.1,60.25119930504574,2025-10-31 13h18.11.961902 +0530,
27,56,22,55,55,0,l,5.847556299995631,None,0,55,55,98,242.08875519991852,,,,,242.078554000007,242.08875519991852,243.08899969991762,243.08899969991762,243.08899969991762,248.93807959998958,l,5.847556299995631,None,,,3,001,2025-10-31_13h18.06.870,Delay discounting,,2025.1.1,60.25119930504574,2025-10-31 13h18.11.961902 +0530,
22,46,23,56,56,0,l,2.035725700086914,None,0,56,56,60,248.95447070000228,,,,,248.9441851999145,248.95447070000228,249.93761319993064,249.93761319993064,249.95459570002276,251.9883811000036,l,2.035725700086914,None,,,3,001,2025-10-31_13h18.06.870,Delay discounting,,2025.1.1,60.25119930504574,2025-10-31 13h18.11.961902 +0530,
39,78,142,57,57,0,t,1.2233519000001252,None,0,57,57,82,252.0036398000084,,,,,251.99374029994942,252.0036398000084,252.98756149993278,252.98756149993278,253.00402160000522,254.22122930001933,t,1.2233519000001252,None,,,3,001,2025-10-31_13h18.06.870,Delay discounting,,2025.1.1,60.25119930504574,2025-10-31 13h18.11.961902 +0530,
24,76,17,58,58,0,l,2.5221020000753924,None,0,58,58,68,254.23705390002578,,,,,254.22724149993155,254.23705390002578,255.22070019994862,255.22070019994862,255.23757280001882,257.754515199922,l,2.5221020000753924,None,,,3,001,2025-10-31_13h18.06.870,Delay discounting,,2025.1.1,60.25119930504574,2025-10-31 13h18.11.961902 +0530,
54,89,67,59,59,0,t,2.335164799937047,None,0,59,59,52,257.7696054999251,,,,,257.7598006000044,257.7696054999251,258.7538203999866,258.7538203999866,258.7701951999916,261.1043188999174,t,2.335164799937047,None,,,3,001,2025-10-31_13h18.06.870,Delay discounting,,2025.1.1,60.25119930504574,2025-10-31 13h18.11.961902 +0530,
25,66,33,60,60,0,l,6.063828999991529,None,0,60,60,28,261.1195248999866,,,,,261.1103253000183,261.1195248999866,262.1197164999321,262.1197164999321,262.1197164999321,268.18595369998366,l,6.063828999991529,None,,,3,001,2025-10-31_13h18.06.870,Delay discounting,,2025.1.1,60.25119930504574,2025-10-31 13h18.11.961902 +0530,
11,41,45,61,61,0,l,3.8571102999849245,None,0,61,61,10,268.2017004999798,,,,,268.1901725999778,268.2017004999798,269.18489599996246,269.18489599996246,269.2017812000122,273.05241499992553,l,3.8571102999849245,None,,,3,001,2025-10-31_13h18.06.870,Delay discounting,,2025.1.1,60.25119930504574,2025-10-31 13h18.11.961902 +0530,
53,92,57,62,62,0,l,5.923854299937375,None,0,62,62,80,273.0676206999924,,,,,273.0569790999871,273.0676206999924,274.0681409999961,274.0681409999961,274.0681409999961,280.0016848000232,l,5.923854299937375,None,,,3,001,2025-10-31_13h18.06.870,Delay discounting,,2025.1.1,60.25119930504574,2025-10-31 13h18.11.961902 +0530,
28,64,21,63,63,0,t,3.09174860001076,None,0,63,63,81,280.0170030000154,,,,,280.0072353000287,280.0170030000154,281.0173075000057,281.0173075000057,281.0173075000057,284.11785539996345,t,3.09174860001076,None,,,3,001,2025-10-31_13h18.06.870,Delay discounting,,2025.1.1,60.25119930504574,2025-10-31 13h18.11.961902 +0530,
51,77,18,64,64,0,l,0.7089379000244662,None,0,64,64,14,284.133259999915,,,,,284.1241375999525,284.133259999915,285.1168311999645,285.1168311999645,285.13316580001265,285.8339255999308,l,0.7089379000244662,None,,,3,001,2025-10-31_13h18.06.870,Delay discounting,,2025.1.1,60.25119930504574,2025-10-31 13h18.11.961902 +0530,
15,45,29,65,65,0,l,1.1679637000197545,None,0,65,65,71,285.84896059997845,,,,,285.83949039992876,285.84896059997845,286.83325439994223,286.83325439994223,286.8494980999967,288.0168203000212,l,1.1679637000197545,None,,,3,001,2025-10-31_13h18.06.870,Delay discounting,,2025.1.1,60.25119930504574,2025-10-31 13h18.11.961902 +0530,
27,50,21,66,66,0,l,1.141909800004214,None,0,66,66,2,288.0321983000031,,,,,288.02049609995447,288.0321983000031,289.0163308000192,289.0163308000192,289.0328077999875,290.1669208999956,l,1.141909800004214,None,,,3,001,2025-10-31_13h18.06.870,Delay discounting,,2025.1.1,60.25119930504574,2025-10-31 13h18.11.961902 +0530,
78,100,106,67,67,0,l,4.558683599927463,None,0,67,67,12,290.1823345000157,,,,,290.17256949993316,290.1823345000157,291.1825016000075,291.1825016000075,291.1825016000075,295.74916160001885,l,4.558683599927463,None,,,3,001,2025-10-31_13h18.06.870,Delay discounting,,2025.1.1,60.25119930504574,2025-10-31 13h18.11.961902 +0530,
32,70,26,68,68,0,l,1.6207396999234334,None,0,68,68,95,295.7645262000151,,,,,295.7543448000215,295.7645262000151,296.74804239999503,296.74804239999503,296.765025199973,298.38264319999143,l,1.6207396999234334,None,,,3,001,2025-10-31_13h18.06.870,Delay discounting,,2025.1.1,60.25119930504574,2025-10-31 13h18.11.961902 +0530,
29,54,16,69,69,0,l,1.162257399992086,None,0,69,69,78,298.3979888999602,,,,,298.3875134999398,298.3979888999602,299.3978706999915,299.3978706999915,299.3978706999915,300.56528480001725,l,1.162257399992086,None,,,3,001,2025-10-31_13h18.06.870,Delay discounting,,2025.1.1,60.25119930504574,2025-10-31 13h18.11.961902 +0530,
19,41,13,70,70,0,l,0.7814172999933362,None,0,70,70,87,300.58054829994217,,,,,300.57114439993165,300.58054829994217,301.5646382999839,301.5646382999839,301.58099519996904,302.3484370999504,l,0.7814172999933362,None,,,3,001,2025-10-31_13h18.06.870,Delay discounting,,2025.1.1,60.25119930504574,2025-10-31 13h18.11.961902 +0530,
24,61,15,71,71,0,l,1.629498300026171,None,0,71,71,34,302.3641135999933,,,,,302.3545960999327,302.3641135999933,303.34766750002746,303.34766750002746,303.3643737999955,304.98144629993476,l,1.629498300026171,None,,,3,001,2025-10-31_13h18.06.870,Delay discounting,,2025.1.1,60.25119930504574,2025-10-31 13h18.11.961902 +0530,
68,100,103,72,72,0,t,1.0769257000647485,None,0,72,72,83,304.9971490999451,,,,,304.98734120000154,304.9971490999451,305.99725090002175,305.99725090002175,305.99725090002175,307.0814575999975,t,1.0769257000647485,None,,,3,001,2025-10-31_13h18.06.870,Delay discounting,,2025.1.1,60.25119930504574,2025-10-31 13h18.11.961902 +0530,
41,65,112,73,73,0,t,1.9129115999676287,None,0,73,73,64,307.09694929991383,,,,,307.08712469995953,307.09694929991383,308.0972674000077,308.0972674000077,308.0972674000077,310.01412710000295,t,1.9129115999676287,None,,,3,001,2025-10-31_13h18.06.870,Delay discounting,,2025.1.1,60.25119930504574,2025-10-31 13h18.11.961902 +0530,
53,86,71,74,74,0,t,1.623510399949737,None,0,74,74,21,310.02903229999356,,,,,310.02022349997424,310.02903229999356,311.01334239996504,311.01334239996504,311.0300412999932,312.6466389999259,t,1.623510399949737,None,,,3,001,2025-10-31_13h18.06.870,Delay discounting,,2025.1.1,60.25119930504574,2025-10-31 13h18.11.961902 +0530,
56,90,173,75,75,0,t,1.8881228999234736,None,0,75,75,42,312.6627830999205,,,,,312.6519494999666,312.6627830999205,313.64607110002544,313.64607110002544,313.66252679994795,315.5467318999581,t,1.8881228999234736,None,,,3,001,2025-10-31_13h18.06.870,Delay discounting,,2025.1.1,60.25119930504574,2025-10-31 13h18.11.961902 +0530,
43,65,13,76,76,0,l,0.7642648000037298,None,0,76,76,69,315.56227120000403,,,,,315.5526547000045,315.56227120000403,316.56133900000714,316.56133900000714,316.56133900000714,317.3299557999708,l,0.7642648000037298,None,,,3,001,2025-10-31_13h18.06.870,Delay discounting,,2025.1.1,60.25119930504574,2025-10-31 13h18.11.961902 +0530,
21,47,33,77,77,0,l,0.6702419000212103,None,0,77,77,85,317.3455604999326,,,,,317.33494999993127,317.3455604999326,318.3458517999388,318.3458517999388,318.3458517999388,319.02998370002024,l,0.6702419000212103,None,,,3,001,2025-10-31_13h18.06.870,Delay discounting,,2025.1.1,60.25119930504574,2025-10-31 13h18.11.961902 +0530,
63,110,156,78,78,0,t,0.8719578000018373,None,0,78,78,50,319.04492120002396,,,,,319.03430850000586,319.04492120002396,320.0455914000049,320.0455914000049,320.0455914000049,320.92924239998683,t,0.8719578000018373,None,,,3,001,2025-10-31_13h18.06.870,Delay discounting,,2025.1.1,60.25119930504574,2025-10-31 13h18.11.961902 +0530,
49,60,89,79,79,0,l,1.4251108999596909,None,0,79,79,4,320.9451572999824,,,,,320.93489079992287,320.9451572999824,321.92858389997855,321.92858389997855,321.9452051999979,323.36280070000794,l,1.4251108999596909,None,,,3,001,2025-10-31_13h18.06.870,Delay discounting,,2025.1.1,60.25119930504574,2025-10-31 13h18.11.961902 +0530,
77,129,162,80,80,0,t,1.1065522000426427,None,0,80,80,65,323.3779944999842,,,,,323.36869879998267,323.3779944999842,324.3782026999397,324.3782026999397,324.3782026999397,325.4955894999439,t,1.1065522000426427,None,,,3,001,2025-10-31_13h18.06.870,Delay discounting,,2025.1.1,60.25119930504574,2025-10-31 13h18.11.961902 +0530,
43,60,20,81,81,0,l,0.8848520999308676,None,0,81,81,13,325.5110125999199,,,,,325.50132299994584,325.5110125999199,326.5112636999693,326.5112636999693,326.5112636999693,327.411654699943,l,0.8848520999308676,None,,,3,001,2025-10-31_13h18.06.870,Delay discounting,,2025.1.1,60.25119930504574,2025-10-31 13h18.11.961902 +0530,
39,90,170,82,82,0,l,1.2268979999935254,None,0,82,82,26,327.4282871999312,,,,,327.4172614000272,327.4282871999312,328.4110956999939,328.4110956999939,328.427700500004,329.64472639991436,l,1.2268979999935254,None,,,3,001,2025-10-31_13h18.06.870,Delay discounting,,2025.1.1,60.25119930504574,2025-10-31 13h18.11.961902 +0530,
39,82,56,83,83,0,l,1.6657751000020653,None,0,83,83,73,329.6605046999175,,,,,329.65017319994513,329.6605046999175,330.6441024999367,330.6441024999367,330.66084169992246,332.3107809999492,l,1.6657751000020653,None,,,3,001,2025-10-31_13h18.06.870,Delay discounting,,2025.1.1,60.25119930504574,2025-10-31 13h18.11.961902 +0530,
20,63,122,84,84,0,t,1.3763498000334948,None,0,84,84,36,332.3269947000081,,,,,332.3164434999926,332.3269947000081,333.3102953999769,333.3102953999769,333.32714429998305,334.69448730000295,t,1.3763498000334948,None,,,3,001,2025-10-31_13h18.06.870,Delay discounting,,2025.1.1,60.25119930504574,2025-10-31 13h18.11.961902 +0530,
75,108,133,85,85,0,t,2.7743317000567913,None,0,85,85,30,334.709944000002,,,,,334.69977489998564,334.709944000002,335.69361049996223,335.69361049996223,335.710243599955,338.4769764000084,t,2.7743317000567913,None,,,3,001,2025-10-31_13h18.06.870,Delay discounting,,2025.1.1,60.25119930504574,2025-10-31 13h18.11.961902 +0530,
72,119,111,86,86,0,t,1.6476400000974536,None,0,86,86,90,338.4928342999192,,,,,338.4832787999185,338.4928342999192,339.4766880000243,339.4766880000243,339.49312439991627,341.1266783999745,t,1.6476400000974536,None,,,3,001,2025-10-31_13h18.06.870,Delay discounting,,2025.1.1,60.25119930504574,2025-10-31 13h18.11.961902 +0530,
67,75,119,87,87,0,t,2.212597999954596,None,0,87,87,5,341.14228999998886,,,,,341.1318348000059,341.14228999998886,342.1258244999917,342.1258244999917,342.142580899992,344.34276389994193,t,2.212597999954596,None,,,3,001,2025-10-31_13h18.06.870,Delay discounting,,2025.1.1,60.25119930504574,2025-10-31 13h18.11.961902 +0530,
73,120,152,88,88,0,l,2.4160048000048846,None,0,88,88,70,344.3586712999968,,,,,344.34850369999185,344.3586712999968,345.3423060999485,345.3423060999485,345.3587386999279,347.75913110002875,l,2.4160048000048846,None,,,3,001,2025-10-31_13h18.06.870,Delay discounting,,2025.1.1,60.25119930504574,2025-10-31 13h18.11.961902 +0530,
50,85,62,89,89,0,t,0.24638360005337745,None,0,89,89,96,347.774624499958,,,,,347.76406159996986,347.774624499958,348.75849309994373,348.75849309994373,348.77508799999487,349.00926039996557,t,0.24638360005337745,None,,,3,001,2025-10-31_13h18.06.870,Delay discounting,,2025.1.1,60.25119930504574,2025-10-31 13h18.11.961902 +0530,
44,65,38,90,90,0,l,1.0920818999875337,None,0,90,90,19,349.024791099946,,,,,349.015187199926,349.024791099946,350.0083191000158,350.0083191000158,350.0250938999234,351.10895829997025,l,1.0920818999875337,None,,,3,001,2025-10-31_13h18.06.870,Delay discounting,,2025.1.1,60.25119930504574,2025-10-31 13h18.11.961902 +0530,
33,78,45,91,91,0,l,2.6247302999254316,None,0,91,91,56,351.1244033999974,,,,,351.11431909992825,351.1244033999974,352.1082264999859,352.1082264999859,352.12498560000677,354.74179879995063,l,2.6247302999254316,None,,,3,001,2025-10-31_13h18.06.870,Delay discounting,,2025.1.1,60.25119930504574,2025-10-31 13h18.11.961902 +0530,
47,85,60,92,92,0,l,1.1938015000196174,None,0,92,92,11,354.7573969999794,,,,,354.7477080000099,354.7573969999794,355.74101330002304,355.74101330002304,355.75758550001774,356.9412056999281,l,1.1938015000196174,None,,,3,001,2025-10-31_13h18.06.870,Delay discounting,,2025.1.1,60.25119930504574,2025-10-31 13h18.11.961902 +0530,
78,80,162,93,93,0,l,0.9752205999102443,None,0,93,93,6,356.95708289998583,,,,,356.94637549994513,356.95708289998583,357.94068170001265,357.94068170001265,357.9573435999919,358.9246763000265,l,0.9752205999102443,None,,,3,001,2025-10-31_13h18.06.870,Delay discounting,,2025.1.1,60.25119930504574,2025-10-31 13h18.11.961902 +0530,
78,99,116,94,94,0,t,1.2630780000472441,None,0,94,94,15,358.94008400000166,,,,,358.93031810002867,358.94008400000166,359.9237720000092,359.9237720000092,359.94042759994045,361.19027629995253,t,1.2630780000472441,None,,,3,001,2025-10-31_13h18.06.870,Delay discounting,,2025.1.1,60.25119930504574,2025-10-31 13h18.11.961902 +0530,
20,63,35,95,95,0,l,1.1401119999354705,None,0,95,95,41,361.206419599941,,,,,361.19597260002047,361.206419599941,362.18982189998496,362.18982189998496,362.2071827999316,363.3405937999487,l,1.1401119999354705,None,,,3,001,2025-10-31_13h18.06.870,Delay discounting,,2025.1.1,60.25119930504574,2025-10-31 13h18.11.961902 +0530,
28,75,41,96,96,0,l,1.0543525000102818,None,0,96,96,18,363.3568497999804,,,,,363.34648429998197,363.3568497999804,364.35592679993715,364.35592679993715,364.35592679993715,365.4237677999772,l,1.0543525000102818,None,,,3,001,2025-10-31_13h18.06.870,Delay discounting,,2025.1.1,60.25119930504574,2025-10-31 13h18.11.961902 +0530,
54,107,157,97,97,0,t,1.0124539999524131,None,0,97,97,86,365.4394838999724,,,,,365.4290887999814,365.4394838999724,366.42338479997125,366.42338479997125,366.4395652000094,367.44053060002625,t,1.0124539999524131,None,,,3,001,2025-10-31_13h18.06.870,Delay discounting,,2025.1.1,60.25119930504574,2025-10-31 13h18.11.961902 +0530,
15,35,13,98,98,0,l,1.060775600024499,None,0,98,98,1,367.456052799942,,,,,367.44630850001704,367.456052799942,368.4561484999722,368.4561484999722,368.4561484999722,369.5235907000024,l,1.060775600024499,None,,,3,001,2025-10-31_13h18.06.870,Delay discounting,,2025.1.1,60.25119930504574,2025-10-31 13h18.11.961902 +0530,
57,99,146,99,99,0,t,1.0194506000261754,None,0,99,99,92,369.5389090999961,,,,,369.5287320999196,369.5389090999961,370.53853969997726,370.53853969997726,370.53853969997726,371.57318419998046,t,1.0194506000261754,None,,,3,001,2025-10-31_13h18.06.870,Delay discounting,,2025.1.1,60.25119930504574,2025-10-31 13h18.11.961902 +0530,
,,,,,,,,,,,,,,,,,,,,,,,,,,,371.5733588000294,371.5734373999294,3,001,2025-10-31_13h18.06.870,Delay discounting,,2025.1.1,60.25119930504574,2025-10-31 13h18.11.961902 +0530,
