pos,corr_resp,thisN,thisTrialN,thisRepN,key_resp.keys,key_resp.corr,key_resp.rt,key_resp.duration,trials.thisRepN,trials.thisTrialN,trials.thisN,trials.thisIndex,trials_2.thisRepN,trials_2.thisTrialN,trials_2.thisN,trials_2.thisIndex,thisRow.t,notes,Welcome.started,text.started,Welcome.stopped,trial.started,Fixation.started,Line1.started,line2.started,line3.started,line4.started,Fixation.stopped,probe.started,key_resp.started,trial.stopped,trials.key_resp.keys,trials.key_resp.corr,trials.key_resp.rt,trials.key_resp.duration,trials_2.key_resp.keys,trials_2.key_resp.corr,trials_2.key_resp.rt,trials_2.key_resp.duration,Thank_You.started,text_2.started,text_2.stopped,Thank_You.stopped,participant,session,date,expName,expVersion,psychopyVersion,frameRate,expStart,
,,,,,,,,,,,,,,,,,,,0.01149720000103116,0.02897920017130673,3.0133587000891566,,,,,,,,,,,,,,,,,,,,,,,2,001,2025-10-03_16h07.43.707,Motor Sequence 4.0,,2025.1.1,59.94779750708082,2025-10-03 16h08.08.348535 +0530,
-50,x,0,0,0,x,1,1.3239873999264091,None,0,0,0,0,,,,,3.04461030010134,,,,,3.0251391001511365,3.04461030010134,4.012780999997631,4.012780999997631,4.012780999997631,4.012780999997631,4.045314300106838,5.011698700021952,5.011698700021952,6.368332100100815,x,1,1.3239873999264091,None,,,,,,,,,2,001,2025-10-03_16h07.43.707,Motor Sequence 4.0,,2025.1.1,59.94779750708082,2025-10-03 16h08.08.348535 +0530,
150,v,1,1,0,v,1,0.833978199865669,None,0,1,1,1,,,,,6.376481000101194,,,,,6.368553600041196,6.376481000101194,7.378616200061515,7.378616200061515,7.378616200061515,7.378616200061515,7.378616200061515,8.378223899984732,8.378223899984732,9.213097300147638,v,1,0.833978199865669,None,,,,,,,,,2,001,2025-10-03_16h07.43.707,Motor Sequence 4.0,,2025.1.1,59.94779750708082,2025-10-03 16h08.08.348535 +0530,
50,c,2,2,0,c,1,1.4267307999543846,None,0,2,2,2,,,,,9.227593600051478,,,,,9.2134609001223,9.227593600051478,10.227641800185665,10.227641800185665,10.227641800185665,10.227641800185665,10.227641800185665,11.227208000142127,11.227208000142127,12.662076400127262,c,1,1.4267307999543846,None,,,,,,,,,2,001,2025-10-03_16h07.43.707,Motor Sequence 4.0,,2025.1.1,59.94779750708082,2025-10-03 16h08.08.348535 +0530,
-150,z,3,3,0,z,1,0.46239549992606044,None,0,3,3,3,,,,,12.676953500136733,,,,,12.66255240002647,12.676953500136733,13.677175800083205,13.677175800083205,13.677175800083205,13.677175800083205,13.677175800083205,14.677553800167516,14.677553800167516,15.144824200076982,z,1,0.46239549992606044,None,,,,,,,,,2,001,2025-10-03_16h07.43.707,Motor Sequence 4.0,,2025.1.1,59.94779750708082,2025-10-03 16h08.08.348535 +0530,
-50,x,4,0,1,x,1,0.3751326999627054,None,1,0,4,0,,,,,15.16083040018566,,,,,15.145511100068688,15.16083040018566,16.14379770006053,16.14379770006053,16.14379770006053,16.14379770006053,16.160420900210738,17.160620199982077,17.160620199982077,17.544766700128093,x,1,0.3751326999627054,None,,,,,,,,,2,001,2025-10-03_16h07.43.707,Motor Sequence 4.0,,2025.1.1,59.94779750708082,2025-10-03 16h08.08.348535 +0530,
150,v,5,1,1,v,1,0.35671580000780523,None,1,1,5,1,,,,,17.560431400081143,,,,,17.545262900181115,17.560431400081143,18.55987220001407,18.55987220001407,18.55987220001407,18.55987220001407,18.55987220001407,19.56008610012941,19.56008610012941,19.927245400147513,v,1,0.35671580000780523,None,,,,,,,,,2,001,2025-10-03_16h07.43.707,Motor Sequence 4.0,,2025.1.1,59.94779750708082,2025-10-03 16h08.08.348535 +0530,
50,c,6,2,1,c,1,0.30173219996504486,None,1,2,6,2,,,,,19.94298330019228,,,,,19.927641100017354,19.94298330019228,20.92660170001909,20.92660170001909,20.92660170001909,20.92660170001909,20.943563600070775,21.925973600009456,21.925973600009456,22.243932500015944,c,1,0.30173219996504486,None,,,,,,,,,2,001,2025-10-03_16h07.43.707,Motor Sequence 4.0,,2025.1.1,59.94779750708082,2025-10-03 16h08.08.348535 +0530,
-150,z,7,3,1,z,1,0.34630020009353757,None,1,3,7,3,,,,,22.258942699991167,,,,,22.244171700207517,22.258942699991167,23.242746400181204,23.242746400181204,23.242746400181204,23.242746400181204,23.259373400127515,24.24305220018141,24.24305220018141,24.59355490002781,z,1,0.34630020009353757,None,,,,,,,,,2,001,2025-10-03_16h07.43.707,Motor Sequence 4.0,,2025.1.1,59.94779750708082,2025-10-03 16h08.08.348535 +0530,
-50,x,8,0,2,x,1,0.4316558998543769,None,2,0,8,0,,,,,24.609020000090823,,,,,24.59395240014419,24.609020000090823,25.593568400014192,25.593568400014192,25.593568400014192,25.593568400014192,25.60947860009037,26.608740200055763,26.608740200055763,27.04305259999819,x,1,0.4316558998543769,None,,,,,,,,,2,001,2025-10-03_16h07.43.707,Motor Sequence 4.0,,2025.1.1,59.94779750708082,2025-10-03 16h08.08.348535 +0530,
150,v,9,1,2,v,1,0.49328100006096065,None,2,1,9,1,,,,,27.05914210015908,,,,,27.043398700188845,27.05914210015908,28.041829300113022,28.041829300113022,28.041829300113022,28.041829300113022,28.05887050018646,29.058090600185096,29.058090600185096,29.56011790013872,v,1,0.49328100006096065,None,,,,,,,,,2,001,2025-10-03_16h07.43.707,Motor Sequence 4.0,,2025.1.1,59.94779750708082,2025-10-03 16h08.08.348535 +0530,
50,c,10,2,2,c,1,0.3518113000318408,None,2,2,10,2,,,,,29.57574260002002,,,,,29.560411100042984,29.57574260002002,30.57603760017082,30.57603760017082,30.57603760017082,30.57603760017082,30.57603760017082,31.575801800005138,31.575801800005138,31.94219040009193,c,1,0.3518113000318408,None,,,,,,,,,2,001,2025-10-03_16h07.43.707,Motor Sequence 4.0,,2025.1.1,59.94779750708082,2025-10-03 16h08.08.348535 +0530,
-150,z,11,3,2,z,1,0.3820636000018567,None,2,3,11,3,,,,,31.95824890001677,,,,,31.942562200129032,31.95824890001677,32.94128970010206,32.94128970010206,32.94128970010206,32.94128970010206,32.95845700008795,33.94185040006414,33.94185040006414,34.32583290012553,z,1,0.3820636000018567,None,,,,,,,,,2,001,2025-10-03_16h07.43.707,Motor Sequence 4.0,,2025.1.1,59.94779750708082,2025-10-03 16h08.08.348535 +0530,
-50,x,12,0,3,x,1,0.5847176001407206,None,3,0,12,0,,,,,34.34132370003499,,,,,34.32621389999986,34.34132370003499,35.32475080015138,35.32475080015138,35.32475080015138,35.32475080015138,35.341222000075504,36.34057500003837,36.34057500003837,36.942034900188446,x,1,0.5847176001407206,None,,,,,,,,,2,001,2025-10-03_16h07.43.707,Motor Sequence 4.0,,2025.1.1,59.94779750708082,2025-10-03 16h08.08.348535 +0530,
150,v,13,1,3,v,1,0.3899566999170929,None,3,1,13,1,,,,,36.95734419999644,,,,,36.94231760012917,36.95734419999644,37.94124420010485,37.94124420010485,37.94124420010485,37.94124420010485,37.957781500183046,38.94129670015536,38.94129670015536,39.34185199998319,v,1,0.3899566999170929,None,,,,,,,,,2,001,2025-10-03_16h07.43.707,Motor Sequence 4.0,,2025.1.1,59.94779750708082,2025-10-03 16h08.08.348535 +0530,
50,c,14,2,3,c,1,0.36214879993349314,None,3,2,14,2,,,,,39.357799200108275,,,,,39.3422070001252,39.357799200108275,40.34070740011521,40.34070740011521,40.34070740011521,40.34070740011521,40.35779070015997,41.35786210000515,41.35786210000515,41.724713100120425,c,1,0.36214879993349314,None,,,,,,,,,2,001,2025-10-03_16h07.43.707,Motor Sequence 4.0,,2025.1.1,59.94779750708082,2025-10-03 16h08.08.348535 +0530,
-150,z,15,3,3,z,1,0.4816014999523759,None,3,3,15,3,,,,,41.740596200106665,,,,,41.72517570015043,41.740596200106665,42.723995600128546,42.723995600128546,42.723995600128546,42.723995600128546,42.740887500112876,43.74172869999893,43.74172869999893,44.22434530011378,z,1,0.4816014999523759,None,,,,,,,,,2,001,2025-10-03_16h07.43.707,Motor Sequence 4.0,,2025.1.1,59.94779750708082,2025-10-03 16h08.08.348535 +0530,
-50,x,16,0,4,x,1,0.33908140007406473,None,4,0,16,0,,,,,44.23959270003252,,,,,44.22484969999641,44.23959270003252,45.239588000113145,45.239588000113145,45.239588000113145,45.239588000113145,45.239588000113145,46.24012690014206,46.24012690014206,46.590594900073484,x,1,0.33908140007406473,None,,,,,,,,,2,001,2025-10-03_16h07.43.707,Motor Sequence 4.0,,2025.1.1,59.94779750708082,2025-10-03 16h08.08.348535 +0530,
150,v,17,1,4,v,1,0.5842148999217898,None,4,1,17,1,,,,,46.60728530003689,,,,,46.59102310007438,46.60728530003689,47.5904487001244,47.5904487001244,47.5904487001244,47.5904487001244,47.60789370001294,48.60641560005024,48.60641560005024,49.20657470007427,v,1,0.5842148999217898,None,,,,,,,,,2,001,2025-10-03_16h07.43.707,Motor Sequence 4.0,,2025.1.1,59.94779750708082,2025-10-03 16h08.08.348535 +0530,
50,c,18,2,4,c,1,0.3656633000355214,None,4,2,18,2,,,,,49.22191260010004,,,,,49.20695760007948,49.22191260010004,50.206504500005394,50.206504500005394,50.206504500005394,50.206504500005394,50.222887500189245,51.20590280019678,51.20590280019678,51.57362070004456,c,1,0.3656633000355214,None,,,,,,,,,2,001,2025-10-03_16h07.43.707,Motor Sequence 4.0,,2025.1.1,59.94779750708082,2025-10-03 16h08.08.348535 +0530,
-150,z,19,3,4,z,1,0.4437893000431359,None,4,3,19,3,,,,,51.58974920003675,,,,,51.57405610010028,51.58974920003675,52.57326450012624,52.57326450012624,52.57326450012624,52.57326450012624,52.593043900094926,53.588539000134915,53.588539000134915,54.038498900132254,z,1,0.4437893000431359,None,,,,,,,,,2,001,2025-10-03_16h07.43.707,Motor Sequence 4.0,,2025.1.1,59.94779750708082,2025-10-03 16h08.08.348535 +0530,
-50,x,20,0,5,x,1,0.540468200109899,None,5,0,20,0,,,,,54.05477130017243,,,,,54.03880750015378,54.05477130017243,55.03828450012952,55.03828450012952,55.03828450012952,55.03828450012952,55.0553985000588,56.03852820000611,56.03852820000611,56.58979460014962,x,1,0.540468200109899,None,,,,,,,,,2,001,2025-10-03_16h07.43.707,Motor Sequence 4.0,,2025.1.1,59.94779750708082,2025-10-03 16h08.08.348535 +0530,
150,v,21,1,5,v,1,0.6118896000552922,None,5,1,21,1,,,,,56.60488140000962,,,,,56.59028590004891,56.60488140000962,57.60504829999991,57.60504829999991,57.60504829999991,57.60504829999991,57.60504829999991,58.604632400209084,58.604632400209084,59.223111800150946,v,1,0.6118896000552922,None,,,,,,,,,2,001,2025-10-03_16h07.43.707,Motor Sequence 4.0,,2025.1.1,59.94779750708082,2025-10-03 16h08.08.348535 +0530,
50,c,22,2,5,c,1,0.5909733998123556,None,5,2,22,2,,,,,59.2387716001831,,,,,59.22358960006386,59.2387716001831,60.23685170011595,60.23685170011595,60.23685170011595,60.23685170011595,60.254332000156865,61.23685510014184,61.23685510014184,61.83864870015532,c,1,0.5909733998123556,None,,,,,,,,,2,001,2025-10-03_16h07.43.707,Motor Sequence 4.0,,2025.1.1,59.94779750708082,2025-10-03 16h08.08.348535 +0530,
-150,z,23,3,5,z,1,0.5939279000740498,None,5,3,23,3,,,,,61.85382130020298,,,,,61.83910940005444,61.85382130020298,62.8376961001195,62.8376961001195,62.8376961001195,62.8376961001195,62.854496699990705,63.853719800012186,63.853719800012186,64.45476450002752,z,1,0.5939279000740498,None,,,,,,,,,2,001,2025-10-03_16h07.43.707,Motor Sequence 4.0,,2025.1.1,59.94779750708082,2025-10-03 16h08.08.348535 +0530,
-50,x,24,0,6,x,1,0.7542750001884997,None,6,0,24,0,,,,,64.47103830007836,,,,,64.45511860004626,64.47103830007836,65.45341600012034,65.45341600012034,65.45341600012034,65.45341600012034,65.4703474000562,66.46981779998168,66.46981779998168,67.23698290018365,x,1,0.7542750001884997,None,,,,,,,,,2,001,2025-10-03_16h07.43.707,Motor Sequence 4.0,,2025.1.1,59.94779750708082,2025-10-03 16h08.08.348535 +0530,
150,v,25,1,6,v,1,0.4893104999791831,None,6,1,25,1,,,,,67.2533749002032,,,,,67.23729449999519,67.2533749002032,68.23613610002212,68.23613610002212,68.23613610002212,68.23613610002212,68.25314340018667,69.23592990008183,69.23592990008183,69.73628580011427,v,1,0.4893104999791831,None,,,,,,,,,2,001,2025-10-03_16h07.43.707,Motor Sequence 4.0,,2025.1.1,59.94779750708082,2025-10-03 16h08.08.348535 +0530,
50,c,26,2,6,c,1,0.5594948001671582,None,6,2,26,2,,,,,69.75247110007331,,,,,69.7366293000523,69.75247110007331,70.73578860005364,70.73578860005364,70.73578860005364,70.73578860005364,70.7525216001086,71.73668540013023,71.73668540013023,72.30407329997979,c,1,0.5594948001671582,None,,,,,,,,,2,001,2025-10-03_16h07.43.707,Motor Sequence 4.0,,2025.1.1,59.94779750708082,2025-10-03 16h08.08.348535 +0530,
-150,z,27,3,6,z,1,0.4588111999910325,None,6,3,27,3,,,,,72.31936880014837,,,,,72.30452370014973,72.31936880014837,73.31879310007207,73.31879310007207,73.31879310007207,73.31879310007207,73.31879310007207,74.31939690001309,74.31939690001309,74.78632790013216,z,1,0.4588111999910325,None,,,,,,,,,2,001,2025-10-03_16h07.43.707,Motor Sequence 4.0,,2025.1.1,59.94779750708082,2025-10-03 16h08.08.348535 +0530,
-50,x,28,0,7,x,1,0.40208379994146526,None,7,0,28,0,,,,,74.80207440000959,,,,,74.7866817000322,74.80207440000959,75.78529070015065,75.78529070015065,75.78529070015065,75.78529070015065,75.80152050009929,76.80143190012313,76.80143190012313,77.21869810018688,x,1,0.40208379994146526,None,,,,,,,,,2,001,2025-10-03_16h07.43.707,Motor Sequence 4.0,,2025.1.1,59.94779750708082,2025-10-03 16h08.08.348535 +0530,
150,v,29,1,7,v,1,0.45072960015386343,None,7,1,29,1,,,,,77.2351683001034,,,,,77.21917619998567,77.2351683001034,78.2182354000397,78.2182354000397,78.2182354000397,78.2182354000397,78.23505800007842,79.2187081000302,79.2187081000302,79.68512110016309,v,1,0.45072960015386343,None,,,,,,,,,2,001,2025-10-03_16h07.43.707,Motor Sequence 4.0,,2025.1.1,59.94779750708082,2025-10-03 16h08.08.348535 +0530,
50,c,30,2,7,c,1,0.6356480000540614,None,7,2,30,2,,,,,79.70148909999989,,,,,79.68553680018522,79.70148909999989,80.68576390016824,80.68576390016824,80.68576390016824,80.68576390016824,80.70242119999602,81.68492210004479,81.68492210004479,82.33535250020213,c,1,0.6356480000540614,None,,,,,,,,,2,001,2025-10-03_16h07.43.707,Motor Sequence 4.0,,2025.1.1,59.94779750708082,2025-10-03 16h08.08.348535 +0530,
-150,z,31,3,7,z,1,0.4175861000549048,None,7,3,31,3,,,,,82.35081000020728,,,,,82.33574470016174,82.35081000020728,83.33428970002569,83.33428970002569,83.33428970002569,83.33428970002569,83.35417570010759,84.35039460007101,84.35039460007101,84.76876690005884,z,1,0.4175861000549048,None,,,,,,,,,2,001,2025-10-03_16h07.43.707,Motor Sequence 4.0,,2025.1.1,59.94779750708082,2025-10-03 16h08.08.348535 +0530,
-50,x,32,0,8,x,1,0.35835019988007843,None,8,0,32,0,,,,,84.78418910014443,,,,,84.7691497001797,84.78418910014443,85.78411010000855,85.78411010000855,85.78411010000855,85.78411010000855,85.78411010000855,86.76962770009413,86.76962770009413,87.135174700059,x,1,0.35835019988007843,None,,,,,,,,,2,001,2025-10-03_16h07.43.707,Motor Sequence 4.0,,2025.1.1,59.94779750708082,2025-10-03 16h08.08.348535 +0530,
150,v,33,1,8,v,1,0.4635912999510765,None,8,1,33,1,,,,,87.15067850006744,,,,,87.13551730010659,87.15067850006744,88.13367790007032,88.13367790007032,88.13367790007032,88.13367790007032,88.15013430011459,89.15036200010218,89.15036200010218,89.61758970003575,v,1,0.4635912999510765,None,,,,,,,,,2,001,2025-10-03_16h07.43.707,Motor Sequence 4.0,,2025.1.1,59.94779750708082,2025-10-03 16h08.08.348535 +0530,
50,c,34,2,8,c,1,0.5182452001608908,None,8,2,34,2,,,,,89.63279599999078,,,,,89.61796000017785,89.63279599999078,90.61713260016404,90.61713260016404,90.61713260016404,90.61713260016404,90.63358220015652,91.61695090006106,91.61695090006106,92.15028790012002,c,1,0.5182452001608908,None,,,,,,,,,2,001,2025-10-03_16h07.43.707,Motor Sequence 4.0,,2025.1.1,59.94779750708082,2025-10-03 16h08.08.348535 +0530,
-150,z,35,3,8,z,1,0.29315359983593225,None,8,3,35,3,,,,,92.16665640007704,,,,,92.15066380007192,92.16665640007704,93.14935409999453,93.14935409999453,93.14935409999453,93.14935409999453,93.16608740016818,94.14951110002585,94.14951110002585,94.45061370008625,z,1,0.29315359983593225,None,,,,,,,,,2,001,2025-10-03_16h07.43.707,Motor Sequence 4.0,,2025.1.1,59.94779750708082,2025-10-03 16h08.08.348535 +0530,
-50,x,36,0,9,x,1,0.3623426998965442,None,9,0,36,0,,,,,94.46660260017961,,,,,94.45095940004103,94.46660260017961,95.4670613000635,95.4670613000635,95.4670613000635,95.4670613000635,95.4670613000635,96.4657170001883,96.4657170001883,96.83328450005502,x,1,0.3623426998965442,None,,,,,,,,,2,001,2025-10-03_16h07.43.707,Motor Sequence 4.0,,2025.1.1,59.94779750708082,2025-10-03 16h08.08.348535 +0530,
150,v,37,1,9,v,1,0.2603589999489486,None,9,1,37,1,,,,,96.8488006000407,,,,,96.833690200001,96.8488006000407,97.84950560005382,97.84950560005382,97.84950560005382,97.84950560005382,97.84950560005382,98.83328420016915,98.83328420016915,99.09941840008833,v,1,0.2603589999489486,None,,,,,,,,,2,001,2025-10-03_16h07.43.707,Motor Sequence 4.0,,2025.1.1,59.94779750708082,2025-10-03 16h08.08.348535 +0530,
50,c,38,2,9,c,1,0.34755860012955964,None,9,2,38,2,,,,,99.11546410014853,,,,,99.09984949999489,99.11546410014853,100.11505180015229,100.11505180015229,100.11505180015229,100.11505180015229,100.11505180015229,101.098705700133,101.098705700133,101.44936330011114,c,1,0.34755860012955964,None,,,,,,,,,2,001,2025-10-03_16h07.43.707,Motor Sequence 4.0,,2025.1.1,59.94779750708082,2025-10-03 16h08.08.348535 +0530,
-150,z,39,3,9,z,1,0.5669863000512123,None,9,3,39,3,,,,,101.46543970005587,,,,,101.44982030009851,101.46543970005587,102.46525800018571,102.46525800018571,102.46525800018571,102.46525800018571,102.46525800018571,103.44853810011409,103.44853810011409,104.03200960019603,z,1,0.5669863000512123,None,,,,,,,,,2,001,2025-10-03_16h07.43.707,Motor Sequence 4.0,,2025.1.1,59.94779750708082,2025-10-03 16h08.08.348535 +0530,
-50,x,40,0,10,x,1,0.6642964000348002,None,10,0,40,0,,,,,104.04770520003513,,,,,104.03241300000809,104.04770520003513,105.03128230012953,105.03128230012953,105.03128230012953,105.03128230012953,105.0480961999856,106.04790290002711,106.04790290002711,106.71489330008626,x,1,0.6642964000348002,None,,,,,,,,,2,001,2025-10-03_16h07.43.707,Motor Sequence 4.0,,2025.1.1,59.94779750708082,2025-10-03 16h08.08.348535 +0530,
150,v,41,1,10,v,1,0.703898899955675,None,10,1,41,1,,,,,106.73128570010886,,,,,106.71521460008807,106.73128570010886,107.71436940017156,107.71436940017156,107.71436940017156,107.71436940017156,107.7308002000209,108.71415960020386,108.71415960020386,109.43153499998152,v,1,0.703898899955675,None,,,,,,,,,2,001,2025-10-03_16h07.43.707,Motor Sequence 4.0,,2025.1.1,59.94779750708082,2025-10-03 16h08.08.348535 +0530,
50,c,42,2,10,c,1,0.5429322000127286,None,10,2,42,2,,,,,109.4475875000935,,,,,109.4318487001583,109.4475875000935,110.44781050016172,110.44781050016172,110.44781050016172,110.44781050016172,110.44781050016172,111.43148590018973,111.43148590018973,111.98099409998395,c,1,0.5429322000127286,None,,,,,,,,,2,001,2025-10-03_16h07.43.707,Motor Sequence 4.0,,2025.1.1,59.94779750708082,2025-10-03 16h08.08.348535 +0530,
-150,z,43,3,10,z,1,1.1194972998928279,None,10,3,43,3,,,,,111.99674820015207,,,,,111.98138070013374,111.99674820015207,112.99689010018483,112.99689010018483,112.99689010018483,112.99689010018483,112.99689010018483,113.98080070014112,113.98080070014112,115.1151485000737,z,1,1.1194972998928279,None,,,,,,,,,2,001,2025-10-03_16h07.43.707,Motor Sequence 4.0,,2025.1.1,59.94779750708082,2025-10-03 16h08.08.348535 +0530,
-50,x,44,0,11,x,1,0.4671012999024242,None,11,0,44,0,,,,,115.13092740019783,,,,,115.11554840020835,115.13092740019783,116.12957000010647,116.12957000010647,116.12957000010647,116.12957000010647,116.14638990000822,117.12957940017805,117.12957940017805,117.59709740011021,x,1,0.4671012999024242,None,,,,,,,,,2,001,2025-10-03_16h07.43.707,Motor Sequence 4.0,,2025.1.1,59.94779750708082,2025-10-03 16h08.08.348535 +0530,
150,v,45,1,11,v,1,0.7816064001526684,None,11,1,45,1,,,,,117.61304600001313,,,,,117.59742740006186,117.61304600001313,118.61297690006904,118.61297690006904,118.61297690006904,118.61297690006904,118.61297690006904,119.59660629997961,119.59660629997961,120.37997880019248,v,1,0.7816064001526684,None,,,,,,,,,2,001,2025-10-03_16h07.43.707,Motor Sequence 4.0,,2025.1.1,59.94779750708082,2025-10-03 16h08.08.348535 +0530,
50,c,46,2,11,c,1,0.4508202001452446,None,11,2,46,2,,,,,120.39669130020775,,,,,120.38027510000393,120.39669130020775,121.37957140011713,121.37957140011713,121.37957140011713,121.37957140011713,121.39585990016349,122.37900920002721,122.37900920002721,122.84636140009388,c,1,0.4508202001452446,None,,,,,,,,,2,001,2025-10-03_16h07.43.707,Motor Sequence 4.0,,2025.1.1,59.94779750708082,2025-10-03 16h08.08.348535 +0530,
-150,z,47,3,11,z,1,0.44289290020242333,None,11,3,47,3,,,,,122.86225560004823,,,,,122.84675360005349,122.86225560004823,123.8623072002083,123.8623072002083,123.8623072002083,123.8623072002083,123.8623072002083,124.8620604001917,124.8620604001917,125.31307899998501,z,1,0.44289290020242333,None,,,,,,,,,2,001,2025-10-03_16h07.43.707,Motor Sequence 4.0,,2025.1.1,59.94779750708082,2025-10-03 16h08.08.348535 +0530,
-50,x,48,0,12,x,1,0.527466099942103,None,12,0,48,0,,,,,125.32838770002127,,,,,125.31347540020943,125.32838770002127,126.3284645001404,126.3284645001404,126.3284645001404,126.3284645001404,126.3284645001404,127.32890340010636,127.32890340010636,127.86221810011193,x,1,0.527466099942103,None,,,,,,,,,2,001,2025-10-03_16h07.43.707,Motor Sequence 4.0,,2025.1.1,59.94779750708082,2025-10-03 16h08.08.348535 +0530,
150,v,49,1,12,v,1,0.4786449000239372,None,12,1,49,1,,,,,127.87868329999037,,,,,127.86261390009895,127.87868329999037,128.8618799999822,128.8618799999822,128.8618799999822,128.8618799999822,128.8779961001128,129.87882830016315,129.87882830016315,130.36330289999023,v,1,0.4786449000239372,None,,,,,,,,,2,001,2025-10-03_16h07.43.707,Motor Sequence 4.0,,2025.1.1,59.94779750708082,2025-10-03 16h08.08.348535 +0530,
50,c,50,2,12,c,1,0.4214800999034196,None,12,2,50,2,,,,,130.37797929998487,,,,,130.36365399998613,130.37797929998487,131.3782380002085,131.3782380002085,131.3782380002085,131.3782380002085,131.3782380002085,132.3776999001857,132.3776999001857,132.8120546999853,c,1,0.4214800999034196,None,,,,,,,,,2,001,2025-10-03_16h07.43.707,Motor Sequence 4.0,,2025.1.1,59.94779750708082,2025-10-03 16h08.08.348535 +0530,
-150,z,51,3,12,z,1,0.5019704999867827,None,12,3,51,3,,,,,132.82773000001907,,,,,132.81237210007384,132.82773000001907,133.81104100006633,133.81104100006633,133.81104100006633,133.81104100006633,133.82755160005763,134.82758380007,134.82758380007,135.3443587999791,z,1,0.5019704999867827,None,,,,,,,,,2,001,2025-10-03_16h07.43.707,Motor Sequence 4.0,,2025.1.1,59.94779750708082,2025-10-03 16h08.08.348535 +0530,
-50,x,52,0,13,x,1,0.4833181998692453,None,13,0,52,0,,,,,135.36139850015752,,,,,135.34467040002346,135.36139850015752,136.3440038000699,136.3440038000699,136.3440038000699,136.3440038000699,136.36062550009228,137.34355460014194,137.34355460014194,137.82817020011134,x,1,0.4833181998692453,None,,,,,,,,,2,001,2025-10-03_16h07.43.707,Motor Sequence 4.0,,2025.1.1,59.94779750708082,2025-10-03 16h08.08.348535 +0530,
150,v,53,1,13,v,1,0.4730200001504272,None,13,1,53,1,,,,,137.8438486000523,,,,,137.82862330018543,137.8438486000523,138.8278112001717,138.8278112001717,138.8278112001717,138.8278112001717,138.84424830018543,139.84376160008833,139.84376160008833,140.32791750016622,v,1,0.4730200001504272,None,,,,,,,,,2,001,2025-10-03_16h07.43.707,Motor Sequence 4.0,,2025.1.1,59.94779750708082,2025-10-03 16h08.08.348535 +0530,
50,c,54,2,13,c,1,0.4004915999248624,None,13,2,54,2,,,,,140.34358300012536,,,,,140.32831270014867,140.34358300012536,141.34345610020682,141.34345610020682,141.34345610020682,141.34345610020682,141.34345610020682,142.32730290014297,142.32730290014297,142.743940200191,c,1,0.4004915999248624,None,,,,,,,,,2,001,2025-10-03_16h07.43.707,Motor Sequence 4.0,,2025.1.1,59.94779750708082,2025-10-03 16h08.08.348535 +0530,
-150,z,55,3,13,z,1,0.29723140015266836,None,13,3,55,3,,,,,142.76096180011518,,,,,142.74426220008172,142.76096180011518,143.74300440005027,143.74300440005027,143.74300440005027,143.74300440005027,143.77686420013197,144.7431342001073,144.7431342001073,145.04560880013742,z,1,0.29723140015266836,None,,,,,,,,,2,001,2025-10-03_16h07.43.707,Motor Sequence 4.0,,2025.1.1,59.94779750708082,2025-10-03 16h08.08.348535 +0530,
-50,x,56,0,14,x,1,0.3136255999561399,None,14,0,56,0,,,,,145.0598778000567,,,,,145.04610910010524,145.0598778000567,146.05953000020236,146.05953000020236,146.05953000020236,146.05953000020236,146.05953000020236,147.0616131001152,147.0616131001152,147.37748760008253,x,1,0.3136255999561399,None,,,,,,,,,2,001,2025-10-03_16h07.43.707,Motor Sequence 4.0,,2025.1.1,59.94779750708082,2025-10-03 16h08.08.348535 +0530,
150,v,57,1,14,v,1,0.4734511999413371,None,14,1,57,1,,,,,147.39337280020118,,,,,147.3778284001164,147.39337280020118,148.392581500113,148.392581500113,148.392581500113,148.392581500113,148.392581500113,149.3926071000751,149.3926071000751,149.8767364001833,v,1,0.4734511999413371,None,,,,,,,,,2,001,2025-10-03_16h07.43.707,Motor Sequence 4.0,,2025.1.1,59.94779750708082,2025-10-03 16h08.08.348535 +0530,
50,c,58,2,14,c,1,0.5244851999450475,None,14,2,58,2,,,,,149.89254080015235,,,,,149.87714790017344,149.89254080015235,150.87627650005743,150.87627650005743,150.87627650005743,150.87627650005743,150.89338650018908,151.89268720010296,151.89268720010296,152.42652990017086,c,1,0.5244851999450475,None,,,,,,,,,2,001,2025-10-03_16h07.43.707,Motor Sequence 4.0,,2025.1.1,59.94779750708082,2025-10-03 16h08.08.348535 +0530,
-150,z,59,3,14,z,1,0.41739329998381436,None,14,3,59,3,,,,,152.44230270013213,,,,,152.42696210020222,152.44230270013213,153.44197490019724,153.44197490019724,153.44197490019724,153.44197490019724,153.44197490019724,154.44216470001265,154.44216470001265,154.87581310002133,z,1,0.41739329998381436,None,,,,,,,,,2,001,2025-10-03_16h07.43.707,Motor Sequence 4.0,,2025.1.1,59.94779750708082,2025-10-03 16h08.08.348535 +0530,
-50,x,60,0,15,x,1,0.3240106999874115,None,15,0,60,0,,,,,154.8920162001159,,,,,154.87617160007358,154.8920162001159,155.87534860009328,155.87534860009328,155.87534860009328,155.87534860009328,155.89183940016665,156.87540060002357,156.87540060002357,157.20892250002362,x,1,0.3240106999874115,None,,,,,,,,,2,001,2025-10-03_16h07.43.707,Motor Sequence 4.0,,2025.1.1,59.94779750708082,2025-10-03 16h08.08.348535 +0530,
150,v,61,1,15,v,1,0.506891299970448,None,15,1,61,1,,,,,157.22503089997917,,,,,157.20933210011572,157.22503089997917,158.2079438001383,158.2079438001383,158.2079438001383,158.2079438001383,158.22542340005748,159.20895040011965,159.20895040011965,159.7252394000534,v,1,0.506891299970448,None,,,,,,,,,2,001,2025-10-03_16h07.43.707,Motor Sequence 4.0,,2025.1.1,59.94779750708082,2025-10-03 16h08.08.348535 +0530,
50,c,62,2,15,c,1,0.4606258000712842,None,15,2,62,2,,,,,159.7416773000732,,,,,159.7255724000279,159.7416773000732,160.72468119999394,160.72468119999394,160.72468119999394,160.72468119999394,160.74124010000378,161.74113950016908,161.74113950016908,162.20909120002761,c,1,0.4606258000712842,None,,,,,,,,,2,001,2025-10-03_16h07.43.707,Motor Sequence 4.0,,2025.1.1,59.94779750708082,2025-10-03 16h08.08.348535 +0530,
-150,z,63,3,15,z,1,0.3151295001152903,None,15,3,63,3,,,,,162.2242932000663,,,,,162.2094602000434,162.2242932000663,163.22441580006853,163.22441580006853,163.22441580006853,163.22441580006853,163.22441580006853,164.22364970017225,164.22364970017225,164.54170100018382,z,1,0.3151295001152903,None,,,,,,,,,2,001,2025-10-03_16h07.43.707,Motor Sequence 4.0,,2025.1.1,59.94779750708082,2025-10-03 16h08.08.348535 +0530,
-50,x,64,0,16,x,1,0.3076333999633789,None,16,0,64,0,,,,,164.55769640021026,,,,,164.5421057001222,164.55769640021026,165.5571571001783,165.5571571001783,165.5571571001783,165.5571571001783,165.5571571001783,166.5572132000234,166.5572132000234,166.87534200004302,x,1,0.3076333999633789,None,,,,,,,,,2,001,2025-10-03_16h07.43.707,Motor Sequence 4.0,,2025.1.1,59.94779750708082,2025-10-03 16h08.08.348535 +0530,
150,v,65,1,16,v,1,0.2902107001282275,None,16,1,65,1,,,,,166.8903948001098,,,,,166.8756536000874,166.8903948001098,167.87361070001498,167.87361070001498,167.87361070001498,167.87361070001498,167.8901260001585,168.89013950014487,168.89013950014487,169.19123180001043,v,1,0.2902107001282275,None,,,,,,,,,2,001,2025-10-03_16h07.43.707,Motor Sequence 4.0,,2025.1.1,59.94779750708082,2025-10-03 16h08.08.348535 +0530,
50,c,66,2,16,c,1,0.3056898999493569,None,16,2,66,2,,,,,169.20711309998296,,,,,169.19165810011327,169.20711309998296,170.20667050010525,170.20667050010525,170.20667050010525,170.20667050010525,170.20667050010525,171.19047430017963,171.19047430017963,171.50812650006264,c,1,0.3056898999493569,None,,,,,,,,,2,001,2025-10-03_16h07.43.707,Motor Sequence 4.0,,2025.1.1,59.94779750708082,2025-10-03 16h08.08.348535 +0530,
-150,z,67,3,16,z,1,0.45591030013747513,None,16,3,67,3,,,,,171.52395130018704,,,,,171.50844960007817,171.52395130018704,172.5229974000249,172.5229974000249,172.5229974000249,172.5229974000249,172.5229974000249,173.50795420003124,173.50795420003124,173.97625640011393,z,1,0.45591030013747513,None,,,,,,,,,2,001,2025-10-03_16h07.43.707,Motor Sequence 4.0,,2025.1.1,59.94779750708082,2025-10-03 16h08.08.348535 +0530,
-50,x,68,0,17,x,1,0.29408619995228946,None,17,0,68,0,,,,,173.98971610004082,,,,,173.9767175000161,173.98971610004082,174.9908083002083,174.9908083002083,174.9908083002083,174.9908083002083,174.9908083002083,175.98942790017463,175.98942790017463,176.289846500149,x,1,0.29408619995228946,None,,,,,,,,,2,001,2025-10-03_16h07.43.707,Motor Sequence 4.0,,2025.1.1,59.94779750708082,2025-10-03 16h08.08.348535 +0530,
150,v,69,1,17,v,1,0.35430530016310513,None,17,1,69,1,,,,,176.3060710001737,,,,,176.29031200008467,176.3060710001737,177.28929530014284,177.28929530014284,177.28929530014284,177.28929530014284,177.30700640007854,178.2903942000121,178.2903942000121,178.657704600133,v,1,0.35430530016310513,None,,,,,,,,,2,001,2025-10-03_16h07.43.707,Motor Sequence 4.0,,2025.1.1,59.94779750708082,2025-10-03 16h08.08.348535 +0530,
50,c,70,2,17,c,1,0.38387490017339587,None,17,2,70,2,,,,,178.67366500012577,,,,,178.65809520008042,178.67366500012577,179.6573087000288,179.6573087000288,179.6573087000288,179.6573087000288,179.67365240002982,180.6721622000914,180.6721622000914,181.05652080010623,c,1,0.38387490017339587,None,,,,,,,,,2,001,2025-10-03_16h07.43.707,Motor Sequence 4.0,,2025.1.1,59.94779750708082,2025-10-03 16h08.08.348535 +0530,
-150,z,71,3,17,z,1,0.3547575999982655,None,17,3,71,3,,,,,181.07171689998358,,,,,181.0568497001659,181.07171689998358,182.0721472001169,182.0721472001169,182.0721472001169,182.0721472001169,182.0721472001169,183.07182150008157,183.07182150008157,183.43923400016502,z,1,0.3547575999982655,None,,,,,,,,,2,001,2025-10-03_16h07.43.707,Motor Sequence 4.0,,2025.1.1,59.94779750708082,2025-10-03 16h08.08.348535 +0530,
-50,x,72,0,18,x,1,0.5092903000768274,None,18,0,72,0,,,,,183.45528400014155,,,,,183.43966760020703,183.45528400014155,184.4382294001989,184.4382294001989,184.4382294001989,184.4382294001989,184.4547747001052,185.43861240008846,185.43861240008846,185.95575660001487,x,1,0.5092903000768274,None,,,,,,,,,2,001,2025-10-03_16h07.43.707,Motor Sequence 4.0,,2025.1.1,59.94779750708082,2025-10-03 16h08.08.348535 +0530,
150,v,73,1,18,v,1,0.3776861000806093,None,18,1,73,1,,,,,185.97135500004515,,,,,185.95605810009874,185.97135500004515,186.95479780016467,186.95479780016467,186.95479780016467,186.95479780016467,186.97183830011636,187.97125100018457,187.97125100018457,188.3551221000962,v,1,0.3776861000806093,None,,,,,,,,,2,001,2025-10-03_16h07.43.707,Motor Sequence 4.0,,2025.1.1,59.94779750708082,2025-10-03 16h08.08.348535 +0530,
50,c,74,2,18,c,1,0.516075799940154,None,18,2,74,2,,,,,188.37576199998148,,,,,188.35539490007795,188.37576199998148,189.3543358000461,189.3543358000461,189.3543358000461,189.3543358000461,189.38758820015937,190.35495900013484,190.35495900013484,190.87205790006556,c,1,0.516075799940154,None,,,,,,,,,2,001,2025-10-03_16h07.43.707,Motor Sequence 4.0,,2025.1.1,59.94779750708082,2025-10-03 16h08.08.348535 +0530,
-150,z,75,3,18,z,1,0.47320500016212463,None,18,3,75,3,,,,,190.8882639000658,,,,,190.87234140001237,190.8882639000658,191.88814020017162,191.88814020017162,191.88814020017162,191.88814020017162,191.88814020017162,192.8878621000331,192.8878621000331,193.3718842000235,z,1,0.47320500016212463,None,,,,,,,,,2,001,2025-10-03_16h07.43.707,Motor Sequence 4.0,,2025.1.1,59.94779750708082,2025-10-03 16h08.08.348535 +0530,
-50,x,76,0,19,x,1,0.5405073999427259,None,19,0,76,0,,,,,193.38877010019496,,,,,193.37223460013047,193.38877010019496,194.37132930010557,194.37132930010557,194.37132930010557,194.37132930010557,194.38789100013673,195.38681300007738,195.38681300007738,195.93769649998285,x,1,0.5405073999427259,None,,,,,,,,,2,001,2025-10-03_16h07.43.707,Motor Sequence 4.0,,2025.1.1,59.94779750708082,2025-10-03 16h08.08.348535 +0530,
150,v,77,1,19,v,1,0.5749671999365091,None,19,1,77,1,,,,,195.95367279998027,,,,,195.93809520010836,195.95367279998027,196.93700470007025,196.93700470007025,196.93700470007025,196.93700470007025,196.95358810015023,197.953596400097,197.953596400097,198.53709970018826,v,1,0.5749671999365091,None,,,,,,,,,2,001,2025-10-03_16h07.43.707,Motor Sequence 4.0,,2025.1.1,59.94779750708082,2025-10-03 16h08.08.348535 +0530,
50,c,78,2,19,c,1,0.5567666999995708,None,19,2,78,2,,,,,198.55375030008145,,,,,198.53739000018686,198.55375030008145,199.53628670005128,199.53628670005128,199.53628670005128,199.53628670005128,199.55339840007946,200.55331410001963,200.55331410001963,201.11974039999768,c,1,0.5567666999995708,None,,,,,,,,,2,001,2025-10-03_16h07.43.707,Motor Sequence 4.0,,2025.1.1,59.94779750708082,2025-10-03 16h08.08.348535 +0530,
-150,z,79,3,19,z,1,0.7073770000133663,None,19,3,79,3,,,,,201.13714590016752,,,,,201.1201236001216,201.13714590016752,202.11921250005253,202.11921250005253,202.11921250005253,202.11921250005253,202.15361680020578,203.1192902000621,203.1192902000621,203.83661870006472,z,1,0.7073770000133663,None,,,,,,,,,2,001,2025-10-03_16h07.43.707,Motor Sequence 4.0,,2025.1.1,59.94779750708082,2025-10-03 16h08.08.348535 +0530,
-50,x,80,0,20,x,1,0.5463105000089854,None,20,0,80,0,,,,,203.85258150007576,,,,,203.83711820002645,203.85258150007576,204.83574990020134,204.83574990020134,204.83574990020134,204.83574990020134,204.852278200211,205.83595090010203,205.83595090010203,206.38763630017638,x,1,0.5463105000089854,None,,,,,,,,,2,001,2025-10-03_16h07.43.707,Motor Sequence 4.0,,2025.1.1,59.94779750708082,2025-10-03 16h08.08.348535 +0530,
150,v,81,1,20,v,1,0.39314999990165234,None,20,1,81,1,,,,,206.40474210004322,,,,,206.38806450017728,206.40474210004322,207.40239170007408,207.40239170007408,207.40239170007408,207.40239170007408,207.4197905000765,208.40178419998847,208.40178419998847,208.8037142001558,v,1,0.39314999990165234,None,,,,,,,,,2,001,2025-10-03_16h07.43.707,Motor Sequence 4.0,,2025.1.1,59.94779750708082,2025-10-03 16h08.08.348535 +0530,
50,c,82,2,20,c,1,0.32516430015675724,None,20,2,82,2,,,,,208.81833340018056,,,,,208.8042239001952,208.81833340018056,209.81881820014678,209.81881820014678,209.81881820014678,209.81881820014678,209.81881820014678,210.81922130007297,210.81922130007297,211.152130600065,c,1,0.32516430015675724,None,,,,,,,,,2,001,2025-10-03_16h07.43.707,Motor Sequence 4.0,,2025.1.1,59.94779750708082,2025-10-03 16h08.08.348535 +0530,
-150,z,83,3,20,z,1,0.48354799998924136,None,20,3,83,3,,,,,211.16807730006985,,,,,211.15254739997908,211.16807730006985,212.1513643001672,212.1513643001672,212.1513643001672,212.1513643001672,212.1683046000544,213.1521619001869,213.1521619001869,213.6526581000071,z,1,0.48354799998924136,None,,,,,,,,,2,001,2025-10-03_16h07.43.707,Motor Sequence 4.0,,2025.1.1,59.94779750708082,2025-10-03 16h08.08.348535 +0530,
-50,x,84,0,21,x,1,0.5082634000573307,None,21,0,84,0,,,,,213.66762180021033,,,,,213.65306400018744,213.66762180021033,214.6676309001632,214.6676309001632,214.6676309001632,214.6676309001632,214.6676309001632,215.66849000006914,215.66849000006914,216.18515380006284,x,1,0.5082634000573307,None,,,,,,,,,2,001,2025-10-03_16h07.43.707,Motor Sequence 4.0,,2025.1.1,59.94779750708082,2025-10-03 16h08.08.348535 +0530,
150,v,85,1,21,v,1,0.46239429991692305,None,21,1,85,1,,,,,216.2008723001927,,,,,216.18542680004612,216.2008723001927,217.18474310007878,217.18474310007878,217.18474310007878,217.18474310007878,217.20135520002805,218.20039610005915,218.20039610005915,218.66840570000932,v,1,0.46239429991692305,None,,,,,,,,,2,001,2025-10-03_16h07.43.707,Motor Sequence 4.0,,2025.1.1,59.94779750708082,2025-10-03 16h08.08.348535 +0530,
50,c,86,2,21,c,1,0.43625180004164577,None,21,2,86,2,,,,,218.68346760002896,,,,,218.66884880000725,218.68346760002896,219.6671409001574,219.6671409001574,219.6671409001574,219.6671409001574,219.6839459000621,220.66788630001247,220.66788630001247,221.11888900003396,c,1,0.43625180004164577,None,,,,,,,,,2,001,2025-10-03_16h07.43.707,Motor Sequence 4.0,,2025.1.1,59.94779750708082,2025-10-03 16h08.08.348535 +0530,
-150,z,87,3,21,z,1,0.3920664000324905,None,21,3,87,3,,,,,221.13380950014107,,,,,221.1193290001247,221.13380950014107,222.1337015000172,222.1337015000172,222.1337015000172,222.1337015000172,222.1337015000172,223.1333730001934,223.1333730001934,223.53397560003214,z,1,0.3920664000324905,None,,,,,,,,,2,001,2025-10-03_16h07.43.707,Motor Sequence 4.0,,2025.1.1,59.94779750708082,2025-10-03 16h08.08.348535 +0530,
-50,x,88,0,22,x,1,0.5631949999369681,None,22,0,88,0,,,,,223.55002920003608,,,,,223.53443120000884,223.55002920003608,224.53340060007758,224.53340060007758,224.53340060007758,224.53340060007758,224.55030560004525,225.53341500018723,225.53341500018723,226.10075810016133,x,1,0.5631949999369681,None,,,,,,,,,2,001,2025-10-03_16h07.43.707,Motor Sequence 4.0,,2025.1.1,59.94779750708082,2025-10-03 16h08.08.348535 +0530,
150,v,89,1,22,v,1,0.3864566998090595,None,22,1,89,1,,,,,226.11659440002404,,,,,226.10119220009074,226.11659440002404,227.1160701001063,227.1160701001063,227.1160701001063,227.1160701001063,227.1160701001063,228.10135240014642,228.10135240014642,228.50031500007026,v,1,0.3864566998090595,None,,,,,,,,,2,001,2025-10-03_16h07.43.707,Motor Sequence 4.0,,2025.1.1,59.94779750708082,2025-10-03 16h08.08.348535 +0530,
50,c,90,2,22,c,1,0.3441637000069022,None,22,2,90,2,,,,,228.51611390011385,,,,,228.50077580008656,228.51611390011385,229.4999643000774,229.4999643000774,229.4999643000774,229.4999643000774,229.51649070018902,230.51556460000575,230.51556460000575,230.8668939000927,c,1,0.3441637000069022,None,,,,,,,,,2,001,2025-10-03_16h07.43.707,Motor Sequence 4.0,,2025.1.1,59.94779750708082,2025-10-03 16h08.08.348535 +0530,
-150,z,91,3,22,z,1,0.324001100147143,None,22,3,91,3,,,,,230.88232490001246,,,,,230.86721660010517,230.88232490001246,231.88255880004726,231.88255880004726,231.88255880004726,231.88255880004726,231.88255880004726,232.86606470006518,232.86606470006518,233.20017020008527,z,1,0.324001100147143,None,,,,,,,,,2,001,2025-10-03_16h07.43.707,Motor Sequence 4.0,,2025.1.1,59.94779750708082,2025-10-03 16h08.08.348535 +0530,
-50,x,92,0,23,x,1,0.4961627998854965,None,23,0,92,0,,,,,233.2159840001259,,,,,233.20055240020156,233.2159840001259,234.21591920009814,234.21591920009814,234.21591920009814,234.21591920009814,234.21591920009814,235.21525370003656,235.21525370003656,235.71636010007933,x,1,0.4961627998854965,None,,,,,,,,,2,001,2025-10-03_16h07.43.707,Motor Sequence 4.0,,2025.1.1,59.94779750708082,2025-10-03 16h08.08.348535 +0530,
150,v,93,1,23,v,1,0.5159968000371009,None,23,1,93,1,,,,,235.7314170000609,,,,,235.716689000139,235.7314170000609,236.73121120012365,236.73121120012365,236.73121120012365,236.73121120012365,236.73121120012365,237.73158810008317,237.73158810008317,238.24879900016822,v,1,0.5159968000371009,None,,,,,,,,,2,001,2025-10-03_16h07.43.707,Motor Sequence 4.0,,2025.1.1,59.94779750708082,2025-10-03 16h08.08.348535 +0530,
50,c,94,2,23,c,1,0.6860259000677615,None,23,2,94,2,,,,,238.26473100017756,,,,,238.24929670011625,238.26473100017756,239.26516539999284,239.26516539999284,239.26516539999284,239.26516539999284,239.26516539999284,240.24785400019027,240.24785400019027,240.94883390003815,c,1,0.6860259000677615,None,,,,,,,,,2,001,2025-10-03_16h07.43.707,Motor Sequence 4.0,,2025.1.1,59.94779750708082,2025-10-03 16h08.08.348535 +0530,
-150,z,95,3,23,z,1,0.4374757001642138,None,23,3,95,3,,,,,240.96574910008349,,,,,240.9494110001251,240.96574910008349,241.9482126000803,241.9482126000803,241.9482126000803,241.9482126000803,241.9643473001197,242.94796800008044,242.94796800008044,243.40003420016728,z,1,0.4374757001642138,None,,,,,,,,,2,001,2025-10-03_16h07.43.707,Motor Sequence 4.0,,2025.1.1,59.94779750708082,2025-10-03 16h08.08.348535 +0530,
-50,x,96,0,24,x,1,0.493455900112167,None,24,0,96,0,,,,,243.4157771000173,,,,,243.4005200001411,243.4157771000173,244.41440000012517,244.41440000012517,244.41440000012517,244.41440000012517,244.4309183000587,245.4139324000571,245.4139324000571,245.91475450014696,x,1,0.493455900112167,None,,,,,,,,,2,001,2025-10-03_16h07.43.707,Motor Sequence 4.0,,2025.1.1,59.94779750708082,2025-10-03 16h08.08.348535 +0530,
150,v,97,1,24,v,1,0.43414629995822906,None,24,1,97,1,,,,,245.93141180020757,,,,,245.91515480005182,245.93141180020757,246.91487219999544,246.91487219999544,246.91487219999544,246.91487219999544,246.93057349999435,247.91340580000542,247.91340580000542,248.3642124000471,v,1,0.43414629995822906,None,,,,,,,,,2,001,2025-10-03_16h07.43.707,Motor Sequence 4.0,,2025.1.1,59.94779750708082,2025-10-03 16h08.08.348535 +0530,
50,c,98,2,24,c,1,0.3782116000074893,None,24,2,98,2,,,,,248.38001640001312,,,,,248.36461980012245,248.38001640001312,249.36373410001397,249.36373410001397,249.36373410001397,249.36373410001397,249.3797192000784,250.3805298001971,250.3805298001971,250.76400770014152,c,1,0.3782116000074893,None,,,,,,,,,2,001,2025-10-03_16h07.43.707,Motor Sequence 4.0,,2025.1.1,59.94779750708082,2025-10-03 16h08.08.348535 +0530,
-150,z,99,3,24,z,1,0.45094330003485084,None,24,3,99,3,,,,,250.7798723001033,,,,,250.76448390004225,250.7798723001033,251.78004370001145,251.78004370001145,251.78004370001145,251.78004370001145,251.78004370001145,252.77951560006477,252.77951560006477,253.247284400044,z,1,0.45094330003485084,None,,,,,,,,,2,001,2025-10-03_16h07.43.707,Motor Sequence 4.0,,2025.1.1,59.94779750708082,2025-10-03 16h08.08.348535 +0530,
150,v,0,0,0,v,1,0.3656332001555711,None,,,,,0,0,0,1,253.26309140003286,,,,,253.256856800057,253.26309140003286,254.2638292000629,254.2638292000629,254.2638292000629,254.2638292000629,254.2638292000629,255.24621270014904,255.24621270014904,255.61484500020742,,,,,v,1,0.3656332001555711,None,,,,,2,001,2025-10-03_16h07.43.707,Motor Sequence 4.0,,2025.1.1,59.94779750708082,2025-10-03 16h08.08.348535 +0530,
50,c,1,1,0,c,1,0.4822438000701368,None,,,,,0,1,1,2,255.6302954000421,,,,,255.61522610019892,255.6302954000421,256.6290669001173,256.6290669001173,256.6290669001173,256.6290669001173,256.6458402001299,257.6307787001133,257.6307787001133,258.1148955000099,,,,,c,1,0.4822438000701368,None,,,,,2,001,2025-10-03_16h07.43.707,Motor Sequence 4.0,,2025.1.1,59.94779750708082,2025-10-03 16h08.08.348535 +0530,
-150,z,2,2,0,z,1,0.4142310000024736,None,,,,,0,2,2,3,258.12998430011794,,,,,258.1156496000476,258.12998430011794,259.129609500058,259.129609500058,259.129609500058,259.129609500058,259.129609500058,260.1297947000712,260.1297947000712,260.54586120019667,,,,,z,1,0.4142310000024736,None,,,,,2,001,2025-10-03_16h07.43.707,Motor Sequence 4.0,,2025.1.1,59.94779750708082,2025-10-03 16h08.08.348535 +0530,
150,v,3,3,1,v,1,0.5049955998547375,None,,,,,1,3,3,1,260.5617008002009,,,,,260.54638750012964,260.5617008002009,261.5459933001548,261.5459933001548,261.5459933001548,261.5459933001548,261.5618380000815,262.54494659998454,262.54494659998454,263.0628061001189,,,,,v,1,0.5049955998547375,None,,,,,2,001,2025-10-03_16h07.43.707,Motor Sequence 4.0,,2025.1.1,59.94779750708082,2025-10-03 16h08.08.348535 +0530,
150,v,4,4,2,v,1,0.4984554999973625,None,,,,,2,4,4,1,263.0785333001986,,,,,263.0632137001958,263.0785333001986,264.0782280000858,264.0782280000858,264.0782280000858,264.0782280000858,264.0782280000858,265.0781341001857,265.0781341001857,265.57930780015886,,,,,v,1,0.4984554999973625,None,,,,,2,001,2025-10-03_16h07.43.707,Motor Sequence 4.0,,2025.1.1,59.94779750708082,2025-10-03 16h08.08.348535 +0530,
-50,x,5,5,0,x,1,0.567268299870193,None,,,,,0,5,5,0,265.595538900001,,,,,265.57986559998244,265.595538900001,266.57830420020036,266.57830420020036,266.57830420020036,266.57830420020036,266.59562000003643,267.5950364000164,267.5950364000164,268.17887519998476,,,,,x,1,0.567268299870193,None,,,,,2,001,2025-10-03_16h07.43.707,Motor Sequence 4.0,,2025.1.1,59.94779750708082,2025-10-03 16h08.08.348535 +0530,
150,v,6,6,3,v,1,0.4492468999233097,None,,,,,3,6,6,1,268.1945126000792,,,,,268.1791934000794,268.1945126000792,269.1783037001733,269.1783037001733,269.1783037001733,269.1783037001733,269.19424700015225,270.19442520011216,270.19442520011216,270.6448943000287,,,,,v,1,0.4492468999233097,None,,,,,2,001,2025-10-03_16h07.43.707,Motor Sequence 4.0,,2025.1.1,59.94779750708082,2025-10-03 16h08.08.348535 +0530,
-50,x,7,7,1,x,1,0.7310327999293804,None,,,,,1,7,7,0,270.6611669000704,,,,,270.6452101999894,270.6611669000704,271.64502330007963,271.64502330007963,271.64502330007963,271.64502330007963,271.6610595001839,272.6441362001933,272.6441362001933,273.3813383001834,,,,,x,1,0.7310327999293804,None,,,,,2,001,2025-10-03_16h07.43.707,Motor Sequence 4.0,,2025.1.1,59.94779750708082,2025-10-03 16h08.08.348535 +0530,
-50,x,8,8,2,x,1,0.5371010000817478,None,,,,,2,8,8,0,273.3935085001867,,,,,273.3817689002026,273.3935085001867,274.3939157000277,274.3939157000277,274.3939157000277,274.3939157000277,274.3939157000277,275.39409420010634,275.39409420010634,275.9444077000953,,,,,x,1,0.5371010000817478,None,,,,,2,001,2025-10-03_16h07.43.707,Motor Sequence 4.0,,2025.1.1,59.94779750708082,2025-10-03 16h08.08.348535 +0530,
150,v,9,9,4,v,1,0.4438058000523597,None,,,,,4,9,9,1,275.9609829999972,,,,,275.94469400006346,275.9609829999972,276.94381460011937,276.94381460011937,276.94381460011937,276.94381460011937,276.9608025001362,277.94338030018844,277.94338030018844,278.39403750002384,,,,,v,1,0.4438058000523597,None,,,,,2,001,2025-10-03_16h07.43.707,Motor Sequence 4.0,,2025.1.1,59.94779750708082,2025-10-03 16h08.08.348535 +0530,
150,v,10,10,5,v,1,0.9942230000160635,None,,,,,5,10,10,1,278.4103638001252,,,,,278.3943799000699,278.4103638001252,279.39362119999714,279.39362119999714,279.39362119999714,279.39362119999714,279.4109327001497,280.4095408001449,280.4095408001449,281.41061979997903,,,,,v,1,0.9942230000160635,None,,,,,2,001,2025-10-03_16h07.43.707,Motor Sequence 4.0,,2025.1.1,59.94779750708082,2025-10-03 16h08.08.348535 +0530,
150,v,11,11,6,v,1,0.9037412998732179,None,,,,,6,11,11,1,281.4255673000589,,,,,281.4110737000592,281.4255673000589,282.4102880000137,282.4102880000137,282.4102880000137,282.4102880000137,282.4266165001318,283.4265782001894,283.4265782001894,284.34311270015314,,,,,v,1,0.9037412998732179,None,,,,,2,001,2025-10-03_16h07.43.707,Motor Sequence 4.0,,2025.1.1,59.94779750708082,2025-10-03 16h08.08.348535 +0530,
50,c,12,12,1,c,1,1.1342199000064284,None,,,,,1,12,12,2,284.3592910000589,,,,,284.3436510001775,284.3592910000589,285.34187800018117,285.34187800018117,285.34187800018117,285.34187800018117,285.35874260007404,286.3424750000704,286.3424750000704,287.49331800010987,,,,,c,1,1.1342199000064284,None,,,,,2,001,2025-10-03_16h07.43.707,Motor Sequence 4.0,,2025.1.1,59.94779750708082,2025-10-03 16h08.08.348535 +0530,
150,v,13,13,7,v,1,1.1049065999686718,None,,,,,7,13,13,1,287.50866669998504,,,,,287.4937500001397,287.50866669998504,288.5085338000208,288.5085338000208,288.5085338000208,288.5085338000208,288.5085338000208,289.50842430000193,289.50842430000193,290.6252323000226,,,,,v,1,1.1049065999686718,None,,,,,2,001,2025-10-03_16h07.43.707,Motor Sequence 4.0,,2025.1.1,59.94779750708082,2025-10-03 16h08.08.348535 +0530,
-150,z,14,14,1,z,1,0.6849728999659419,None,,,,,1,14,14,3,290.64166359999217,,,,,290.6256673000753,290.64166359999217,291.6243296000175,291.6243296000175,291.6243296000175,291.6243296000175,291.64127250015736,292.6247964000795,292.6247964000795,293.3271269001998,,,,,z,1,0.6849728999659419,None,,,,,2,001,2025-10-03_16h07.43.707,Motor Sequence 4.0,,2025.1.1,59.94779750708082,2025-10-03 16h08.08.348535 +0530,
50,c,15,15,2,c,1,0.724894099868834,None,,,,,2,15,15,2,293.34152300003916,,,,,293.32755749998614,293.34152300003916,294.3413048000075,294.3413048000075,294.3413048000075,294.3413048000075,294.3413048000075,295.34116240008734,295.34116240008734,296.0758633001242,,,,,c,1,0.724894099868834,None,,,,,2,001,2025-10-03_16h07.43.707,Motor Sequence 4.0,,2025.1.1,59.94779750708082,2025-10-03 16h08.08.348535 +0530,
-50,x,16,16,3,x,1,0.7060393001884222,None,,,,,3,16,16,0,296.09188450011425,,,,,296.0763993000146,296.09188450011425,297.09127130010165,297.09127130010165,297.09127130010165,297.09127130010165,297.1069887999911,298.09170750016347,298.09170750016347,298.8081716001034,,,,,x,1,0.7060393001884222,None,,,,,2,001,2025-10-03_16h07.43.707,Motor Sequence 4.0,,2025.1.1,59.94779750708082,2025-10-03 16h08.08.348535 +0530,
-150,z,17,17,2,z,1,0.46568690007552505,None,,,,,2,17,17,3,298.8243435001932,,,,,298.8085227999836,298.8243435001932,299.8077324000187,299.8077324000187,299.8077324000187,299.8077324000187,299.8244015001692,300.8084740000777,300.8084740000777,301.27514860010706,,,,,z,1,0.46568690007552505,None,,,,,2,001,2025-10-03_16h07.43.707,Motor Sequence 4.0,,2025.1.1,59.94779750708082,2025-10-03 16h08.08.348535 +0530,
50,c,18,18,3,c,1,0.5146584999747574,None,,,,,3,18,18,2,301.29123940016143,,,,,301.27551940013655,301.29123940016143,302.2905406001955,302.2905406001955,302.2905406001955,302.2905406001955,302.2905406001955,303.2910987001378,303.2910987001378,303.80789490020834,,,,,c,1,0.5146584999747574,None,,,,,2,001,2025-10-03_16h07.43.707,Motor Sequence 4.0,,2025.1.1,59.94779750708082,2025-10-03 16h08.08.348535 +0530,
-50,x,19,19,4,x,1,0.44438180001452565,None,,,,,4,19,19,0,303.8245544000529,,,,,303.8081687001977,303.8245544000529,304.8074491000734,304.8074491000734,304.8074491000734,304.8074491000734,304.8239605000708,305.807055399986,305.807055399986,306.2581683001481,,,,,x,1,0.44438180001452565,None,,,,,2,001,2025-10-03_16h07.43.707,Motor Sequence 4.0,,2025.1.1,59.94779750708082,2025-10-03 16h08.08.348535 +0530,
150,v,20,20,8,v,1,0.5552116001490504,None,,,,,8,20,20,1,306.27360479999334,,,,,306.25855310005136,306.27360479999334,307.2739982001949,307.2739982001949,307.2739982001949,307.2739982001949,307.2739982001949,308.2574405001942,308.2574405001942,308.8237591001671,,,,,v,1,0.5552116001490504,None,,,,,2,001,2025-10-03_16h07.43.707,Motor Sequence 4.0,,2025.1.1,59.94779750708082,2025-10-03 16h08.08.348535 +0530,
150,v,21,21,9,v,1,0.5759970000945032,None,,,,,9,21,21,1,308.83994400012307,,,,,308.8242144000251,308.83994400012307,309.82290770020336,309.82290770020336,309.82290770020336,309.82290770020336,309.8395138999913,310.82298510009423,310.82298510009423,311.40675309998915,,,,,v,1,0.5759970000945032,None,,,,,2,001,2025-10-03_16h07.43.707,Motor Sequence 4.0,,2025.1.1,59.94779750708082,2025-10-03 16h08.08.348535 +0530,
50,c,22,22,4,c,1,0.4896645999979228,None,,,,,4,22,22,2,311.42274080007337,,,,,311.4072497000452,311.42274080007337,312.4058327001985,312.4058327001985,312.4058327001985,312.4058327001985,312.42230380000547,313.40658030007035,313.40658030007035,313.90609699999914,,,,,c,1,0.4896645999979228,None,,,,,2,001,2025-10-03_16h07.43.707,Motor Sequence 4.0,,2025.1.1,59.94779750708082,2025-10-03 16h08.08.348535 +0530,
50,c,23,23,5,c,1,0.5803125998936594,None,,,,,5,23,23,2,313.92229040013626,,,,,313.90654800017364,313.92229040013626,314.90572470007464,314.90572470007464,314.90572470007464,314.90572470007464,314.9219494999852,315.9065178001765,315.9065178001765,316.49059960013255,,,,,c,1,0.5803125998936594,None,,,,,2,001,2025-10-03_16h07.43.707,Motor Sequence 4.0,,2025.1.1,59.94779750708082,2025-10-03 16h08.08.348535 +0530,
50,c,24,24,6,c,1,0.47163170017302036,None,,,,,6,24,24,2,316.506085800007,,,,,316.4910160000436,316.506085800007,317.505819800077,317.505819800077,317.505819800077,317.505819800077,317.505819800077,318.5061039000284,318.5061039000284,318.98984440020286,,,,,c,1,0.47163170017302036,None,,,,,2,001,2025-10-03_16h07.43.707,Motor Sequence 4.0,,2025.1.1,59.94779750708082,2025-10-03 16h08.08.348535 +0530,
50,c,25,25,7,c,1,0.5457105999812484,None,,,,,7,25,25,2,319.0059054000303,,,,,318.99036420020275,319.0059054000303,320.006182000041,320.006182000041,320.006182000041,320.006182000041,320.006182000041,321.004826300079,321.004826300079,321.5548837999813,,,,,c,1,0.5457105999812484,None,,,,,2,001,2025-10-03_16h07.43.707,Motor Sequence 4.0,,2025.1.1,59.94779750708082,2025-10-03 16h08.08.348535 +0530,
-150,z,26,26,3,z,1,0.5153405000455678,None,,,,,3,26,26,3,321.57078430010006,,,,,321.55531270010397,321.57078430010006,322.5553602001164,322.5553602001164,322.5553602001164,322.5553602001164,322.57175280014053,323.55506719998084,323.55506719998084,324.07288940018043,,,,,z,1,0.5153405000455678,None,,,,,2,001,2025-10-03_16h07.43.707,Motor Sequence 4.0,,2025.1.1,59.94779750708082,2025-10-03 16h08.08.348535 +0530,
-150,z,27,27,4,z,1,0.4951268997974694,None,,,,,4,27,27,3,324.08825150015764,,,,,324.0733766001649,324.08825150015764,325.08747740020044,325.08747740020044,325.08747740020044,325.08747740020044,325.08747740020044,326.08757770014927,326.08757770014927,326.5878553001676,,,,,z,1,0.4951268997974694,None,,,,,2,001,2025-10-03_16h07.43.707,Motor Sequence 4.0,,2025.1.1,59.94779750708082,2025-10-03 16h08.08.348535 +0530,
150,v,28,28,10,v,1,0.3954781999345869,None,,,,,10,28,28,1,326.6035079001449,,,,,326.5883571000304,326.6035079001449,327.5876077001449,327.5876077001449,327.5876077001449,327.5876077001449,327.6041366001591,328.58766259998083,328.58766259998083,328.98821410001256,,,,,v,1,0.3954781999345869,None,,,,,2,001,2025-10-03_16h07.43.707,Motor Sequence 4.0,,2025.1.1,59.94779750708082,2025-10-03 16h08.08.348535 +0530,
-150,z,29,29,5,z,1,0.5344734000973403,None,,,,,5,29,29,3,329.004285100149,,,,,328.9888037000783,329.004285100149,329.98739760019816,329.98739760019816,329.98739760019816,329.98739760019816,330.0039805001579,331.0040514001157,331.0040514001157,331.5542382001877,,,,,z,1,0.5344734000973403,None,,,,,2,001,2025-10-03_16h07.43.707,Motor Sequence 4.0,,2025.1.1,59.94779750708082,2025-10-03 16h08.08.348535 +0530,
50,c,30,30,8,c,1,0.476942399982363,None,,,,,8,30,30,2,331.5703548002057,,,,,331.5547608002089,331.5703548002057,332.554097100161,332.554097100161,332.554097100161,332.554097100161,332.5704287001863,333.5534500000067,333.5534500000067,334.03827590006404,,,,,c,1,0.476942399982363,None,,,,,2,001,2025-10-03_16h07.43.707,Motor Sequence 4.0,,2025.1.1,59.94779750708082,2025-10-03 16h08.08.348535 +0530,
-50,x,31,31,5,x,1,0.6527021999936551,None,,,,,5,31,31,0,334.05409460002556,,,,,334.0387413999997,334.05409460002556,335.05381030007266,335.05381030007266,335.05381030007266,335.05381030007266,335.05381030007266,336.0536617001053,336.0536617001053,336.7206460000016,,,,,x,1,0.6527021999936551,None,,,,,2,001,2025-10-03_16h07.43.707,Motor Sequence 4.0,,2025.1.1,59.94779750708082,2025-10-03 16h08.08.348535 +0530,
50,c,32,32,9,c,1,0.5067795999348164,None,,,,,9,32,32,2,336.735906700138,,,,,336.72113219997846,336.735906700138,337.7361261001788,337.7361261001788,337.7361261001788,337.7361261001788,337.7361261001788,338.7362174000591,338.7362174000591,339.25347540015355,,,,,c,1,0.5067795999348164,None,,,,,2,001,2025-10-03_16h07.43.707,Motor Sequence 4.0,,2025.1.1,59.94779750708082,2025-10-03 16h08.08.348535 +0530,
150,v,33,33,11,v,1,0.5144493000116199,None,,,,,11,33,33,1,339.2695869000163,,,,,339.25396750005893,339.2695869000163,340.2525156000629,340.2525156000629,340.2525156000629,340.2525156000629,340.2688284001779,341.26962480018847,341.26962480018847,341.78697160002775,,,,,v,1,0.5144493000116199,None,,,,,2,001,2025-10-03_16h07.43.707,Motor Sequence 4.0,,2025.1.1,59.94779750708082,2025-10-03 16h08.08.348535 +0530,
-50,x,34,34,6,x,1,0.6920658000744879,None,,,,,6,34,34,0,341.80265070009045,,,,,341.78743610018864,341.80265070009045,342.78724870015867,342.78724870015867,342.78724870015867,342.78724870015867,342.8045687000267,343.8032270001713,343.8032270001713,344.5031981000211,,,,,x,1,0.6920658000744879,None,,,,,2,001,2025-10-03_16h07.43.707,Motor Sequence 4.0,,2025.1.1,59.94779750708082,2025-10-03 16h08.08.348535 +0530,
-50,x,35,35,7,x,1,1.047900800127536,None,,,,,7,35,35,0,344.51884889998473,,,,,344.5036985001061,344.51884889998473,345.5185031001456,345.5185031001456,345.5185031001456,345.5185031001456,345.5185031001456,346.5189023001585,346.5189023001585,347.56969140004367,,,,,x,1,1.047900800127536,None,,,,,2,001,2025-10-03_16h07.43.707,Motor Sequence 4.0,,2025.1.1,59.94779750708082,2025-10-03 16h08.08.348535 +0530,
-150,z,36,36,6,z,1,0.6790799000300467,None,,,,,6,36,36,3,347.5854170001112,,,,,347.5702096000314,347.5854170001112,348.5849297000095,348.5849297000095,348.5849297000095,348.5849297000095,348.5849297000095,349.58473820006475,349.58473820006475,350.2687415999826,,,,,z,1,0.6790799000300467,None,,,,,2,001,2025-10-03_16h07.43.707,Motor Sequence 4.0,,2025.1.1,59.94779750708082,2025-10-03 16h08.08.348535 +0530,
50,c,37,37,10,c,1,0.7998151001520455,None,,,,,10,37,37,2,350.2845098001417,,,,,350.2696138001047,350.2845098001417,351.26809420017526,351.26809420017526,351.26809420017526,351.26809420017526,351.28458880004473,352.2846847001929,352.2846847001929,353.0854682000354,,,,,c,1,0.7998151001520455,None,,,,,2,001,2025-10-03_16h07.43.707,Motor Sequence 4.0,,2025.1.1,59.94779750708082,2025-10-03 16h08.08.348535 +0530,
-50,x,38,38,8,x,1,0.3605929999612272,None,,,,,8,38,38,0,353.10114790010266,,,,,353.08597210003063,353.10114790010266,354.0843921001069,354.0843921001069,354.0843921001069,354.0843921001069,354.10095080011524,355.1005895000417,355.1005895000417,355.4688041000627,,,,,x,1,0.3605929999612272,None,,,,,2,001,2025-10-03_16h07.43.707,Motor Sequence 4.0,,2025.1.1,59.94779750708082,2025-10-03 16h08.08.348535 +0530,
-150,z,39,39,7,z,1,0.548192499903962,None,,,,,7,39,39,3,355.4844400000293,,,,,355.46931030019186,355.4844400000293,356.48405610001646,356.48405610001646,356.48405610001646,356.48405610001646,356.48405610001646,357.4839820000343,357.4839820000343,358.03489020001143,,,,,z,1,0.548192499903962,None,,,,,2,001,2025-10-03_16h07.43.707,Motor Sequence 4.0,,2025.1.1,59.94779750708082,2025-10-03 16h08.08.348535 +0530,
-150,z,40,40,8,z,1,0.3677870000246912,None,,,,,8,40,40,3,358.0507563999854,,,,,358.03538310015574,358.0507563999854,359.0499402000569,359.0499402000569,359.0499402000569,359.0499402000569,359.0499402000569,360.0503562001977,360.0503562001977,360.41951270005666,,,,,z,1,0.3677870000246912,None,,,,,2,001,2025-10-03_16h07.43.707,Motor Sequence 4.0,,2025.1.1,59.94779750708082,2025-10-03 16h08.08.348535 +0530,
-50,x,41,41,9,c,0,0.47714319988153875,None,,,,,9,41,41,0,360.4338862001896,,,,,360.4202219999861,360.4338862001896,361.4335190001875,361.4335190001875,361.4335190001875,361.4335190001875,361.4335190001875,362.4332430001814,362.4332430001814,362.91629010019824,,,,,c,0,0.47714319988153875,None,,,,,2,001,2025-10-03_16h07.43.707,Motor Sequence 4.0,,2025.1.1,59.94779750708082,2025-10-03 16h08.08.348535 +0530,
-150,z,42,42,9,z,1,0.5400743999052793,None,,,,,9,42,42,3,362.93292890000157,,,,,362.9166620001197,362.93292890000157,363.91679510008544,363.91679510008544,363.91679510008544,363.91679510008544,363.9333681000862,364.91640700004064,364.91640700004064,365.4672350001056,,,,,z,1,0.5400743999052793,None,,,,,2,001,2025-10-03_16h07.43.707,Motor Sequence 4.0,,2025.1.1,59.94779750708082,2025-10-03 16h08.08.348535 +0530,
50,c,43,43,11,c,1,0.810576600022614,None,,,,,11,43,43,2,365.4828074001707,,,,,365.4680443999823,365.4828074001707,366.48677040007897,366.48677040007897,366.48677040007897,366.48677040007897,366.48677040007897,367.482501400169,367.482501400169,368.29983400017954,,,,,c,1,0.810576600022614,None,,,,,2,001,2025-10-03_16h07.43.707,Motor Sequence 4.0,,2025.1.1,59.94779750708082,2025-10-03 16h08.08.348535 +0530,
-50,x,44,44,10,x,1,1.1805709002073854,None,,,,,10,44,44,0,368.31578469998203,,,,,368.300312400097,368.31578469998203,369.2996194001753,369.2996194001753,369.2996194001753,369.2996194001753,369.3161281000357,370.2987821002025,370.2987821002025,371.48402690002695,,,,,x,1,1.1805709002073854,None,,,,,2,001,2025-10-03_16h07.43.707,Motor Sequence 4.0,,2025.1.1,59.94779750708082,2025-10-03 16h08.08.348535 +0530,
-150,z,45,45,10,z,1,0.4676549001596868,None,,,,,10,45,45,3,371.4992373001296,,,,,371.4845313001424,371.4992373001296,372.49897230020724,372.49897230020724,372.49897230020724,372.49897230020724,372.49897230020724,373.4986507000867,373.4986507000867,373.9822082000319,,,,,z,1,0.4676549001596868,None,,,,,2,001,2025-10-03_16h07.43.707,Motor Sequence 4.0,,2025.1.1,59.94779750708082,2025-10-03 16h08.08.348535 +0530,
50,c,46,46,12,c,1,0.5609391001053154,None,,,,,12,46,46,2,373.99798470013775,,,,,373.9827132001519,373.99798470013775,374.98209220007993,374.98209220007993,374.98209220007993,374.98209220007993,374.99839090020396,375.9814681999851,375.9814681999851,376.54885420016944,,,,,c,1,0.5609391001053154,None,,,,,2,001,2025-10-03_16h07.43.707,Motor Sequence 4.0,,2025.1.1,59.94779750708082,2025-10-03 16h08.08.348535 +0530,
150,v,47,47,12,v,1,0.6505211999174207,None,,,,,12,47,47,1,376.5642937000375,,,,,376.5494093000889,376.5642937000375,377.5480514001101,377.5480514001101,377.5480514001101,377.5480514001101,377.56455390015617,378.54796420014463,378.54796420014463,379.19904370000586,,,,,v,1,0.6505211999174207,None,,,,,2,001,2025-10-03_16h07.43.707,Motor Sequence 4.0,,2025.1.1,59.94779750708082,2025-10-03 16h08.08.348535 +0530,
50,c,48,48,13,c,1,0.7765459998045117,None,,,,,13,48,48,2,379.2144146000501,,,,,379.1995341000147,379.2144146000501,380.2145612000022,380.2145612000022,380.2145612000022,380.2145612000022,380.2145612000022,381.2141528001521,381.2141528001521,381.9980948001612,,,,,c,1,0.7765459998045117,None,,,,,2,001,2025-10-03_16h07.43.707,Motor Sequence 4.0,,2025.1.1,59.94779750708082,2025-10-03 16h08.08.348535 +0530,
-50,x,49,49,11,x,1,0.8796431999653578,None,,,,,11,49,49,0,382.01398400007747,,,,,381.9986334000714,382.01398400007747,382.9975116001442,382.9975116001442,382.9975116001442,382.9975116001442,383.0159272002056,384.01379180001095,384.01379180001095,384.8980554000009,,,,,x,1,0.8796431999653578,None,,,,,2,001,2025-10-03_16h07.43.707,Motor Sequence 4.0,,2025.1.1,59.94779750708082,2025-10-03 16h08.08.348535 +0530,
150,v,50,50,13,v,1,0.8814254999160767,None,,,,,13,50,50,1,384.9138665001374,,,,,384.89855570020154,384.9138665001374,385.9136141000781,385.9136141000781,385.9136141000781,385.9136141000781,385.9136141000781,386.8970348001458,386.8970348001458,387.78151360014454,,,,,v,1,0.8814254999160767,None,,,,,2,001,2025-10-03_16h07.43.707,Motor Sequence 4.0,,2025.1.1,59.94779750708082,2025-10-03 16h08.08.348535 +0530,
50,c,51,51,14,c,1,0.7974856998771429,None,,,,,14,51,51,2,387.7967751000542,,,,,387.78206000011414,387.7967751000542,388.79657010012306,388.79657010012306,388.79657010012306,388.79657010012306,388.79657010012306,389.7974067002069,389.7974067002069,390.59702900005504,,,,,c,1,0.7974856998771429,None,,,,,2,001,2025-10-03_16h07.43.707,Motor Sequence 4.0,,2025.1.1,59.94779750708082,2025-10-03 16h08.08.348535 +0530,
50,c,52,52,15,c,1,1.1617791000753641,None,,,,,15,52,52,2,390.6129858000204,,,,,390.5974495999981,390.6129858000204,391.5972488000989,391.5972488000989,391.5972488000989,391.5972488000989,391.61350210011005,392.59622100018896,392.59622100018896,393.7629729001783,,,,,c,1,1.1617791000753641,None,,,,,2,001,2025-10-03_16h07.43.707,Motor Sequence 4.0,,2025.1.1,59.94779750708082,2025-10-03 16h08.08.348535 +0530,
50,c,53,53,16,c,1,0.5406522999983281,None,,,,,16,53,53,2,393.77911130012944,,,,,393.76351730013266,393.77911130012944,394.7625082000159,394.7625082000159,394.7625082000159,394.7625082000159,394.7792883000802,395.76237530005164,395.76237530005164,396.3130229001399,,,,,c,1,0.5406522999983281,None,,,,,2,001,2025-10-03_16h07.43.707,Motor Sequence 4.0,,2025.1.1,59.94779750708082,2025-10-03 16h08.08.348535 +0530,
-150,z,54,54,11,z,1,0.6217443998903036,None,,,,,11,54,54,3,396.32884260010906,,,,,396.3135161001701,396.32884260010906,397.31220190017484,397.31220190017484,397.31220190017484,397.31220190017484,397.3287359001115,398.32880490017124,398.32880490017124,398.96305700019,,,,,z,1,0.6217443998903036,None,,,,,2,001,2025-10-03_16h07.43.707,Motor Sequence 4.0,,2025.1.1,59.94779750708082,2025-10-03 16h08.08.348535 +0530,
-50,x,55,55,12,x,1,0.4928023999091238,None,,,,,12,55,55,0,398.9787697000429,,,,,398.9635771000758,398.9787697000429,399.9783105000388,399.9783105000388,399.9783105000388,399.9783105000388,399.9783105000388,400.97809360013343,400.97809360013343,401.47901540016755,,,,,x,1,0.4928023999091238,None,,,,,2,001,2025-10-03_16h07.43.707,Motor Sequence 4.0,,2025.1.1,59.94779750708082,2025-10-03 16h08.08.348535 +0530,
-50,x,56,56,13,x,1,0.5728404999244958,None,,,,,13,56,56,0,401.4948855000548,,,,,401.47962650004774,401.4948855000548,402.4782235000748,402.4782235000748,402.4782235000748,402.4782235000748,402.4947872001212,403.4941021001432,403.4941021001432,404.0788080000784,,,,,x,1,0.5728404999244958,None,,,,,2,001,2025-10-03_16h07.43.707,Motor Sequence 4.0,,2025.1.1,59.94779750708082,2025-10-03 16h08.08.348535 +0530,
-150,z,57,57,12,z,1,0.5552552998997271,None,,,,,12,57,57,3,404.0951169000473,,,,,404.07949070003815,404.0951169000473,405.0781413000077,405.0781413000077,405.0781413000077,405.0781413000077,405.0949524000753,406.0940960000735,406.0940960000735,406.6618168000132,,,,,z,1,0.5552552998997271,None,,,,,2,001,2025-10-03_16h07.43.707,Motor Sequence 4.0,,2025.1.1,59.94779750708082,2025-10-03 16h08.08.348535 +0530,
50,c,58,58,17,x,0,0.5924174000974745,None,,,,,17,58,58,2,406.67746240017004,,,,,406.66230390011333,406.67746240017004,407.6774307000451,407.6774307000451,407.6774307000451,407.6774307000451,407.6774307000451,408.67752780020237,408.67752780020237,409.2777652000077,,,,,x,0,0.5924174000974745,None,,,,,2,001,2025-10-03_16h07.43.707,Motor Sequence 4.0,,2025.1.1,59.94779750708082,2025-10-03 16h08.08.348535 +0530,
150,v,59,59,14,v,1,0.7504088999703526,None,,,,,14,59,59,1,409.293583100196,,,,,409.2782863001339,409.293583100196,410.2777176001109,410.2777176001109,410.2777176001109,410.2777176001109,410.29451640020125,411.2762409001589,411.2762409001589,412.0278988000937,,,,,v,1,0.7504088999703526,None,,,,,2,001,2025-10-03_16h07.43.707,Motor Sequence 4.0,,2025.1.1,59.94779750708082,2025-10-03 16h08.08.348535 +0530,
-150,z,60,60,13,z,1,0.5860753001179546,None,,,,,13,60,60,3,412.04363390011713,,,,,412.02819119999185,412.04363390011713,413.0260910000652,413.0260910000652,413.0260910000652,413.0260910000652,413.0431768000126,414.0422138001304,414.0422138001304,414.64289180003107,,,,,z,1,0.5860753001179546,None,,,,,2,001,2025-10-03_16h07.43.707,Motor Sequence 4.0,,2025.1.1,59.94779750708082,2025-10-03 16h08.08.348535 +0530,
150,v,61,61,15,v,1,0.4619183000177145,None,,,,,15,61,61,1,414.65969460015185,,,,,414.6434115001466,414.65969460015185,415.64313710015267,415.64313710015267,415.64313710015267,415.64313710015267,415.6590297999792,416.6426584001165,416.6426584001165,417.1101240001153,,,,,v,1,0.4619183000177145,None,,,,,2,001,2025-10-03_16h07.43.707,Motor Sequence 4.0,,2025.1.1,59.94779750708082,2025-10-03 16h08.08.348535 +0530,
150,v,62,62,16,v,1,0.6350625001359731,None,,,,,16,62,62,1,417.126564900158,,,,,417.1105795002077,417.126564900158,418.10875320015475,418.10875320015475,418.10875320015475,418.10875320015475,418.14254150004126,419.1256994002033,419.1256994002033,419.7766282001976,,,,,v,1,0.6350625001359731,None,,,,,2,001,2025-10-03_16h07.43.707,Motor Sequence 4.0,,2025.1.1,59.94779750708082,2025-10-03 16h08.08.348535 +0530,
-50,x,63,63,14,x,1,0.5077941999770701,None,,,,,14,63,63,0,419.79180100001395,,,,,419.77709190011956,419.79180100001395,420.7923809001222,420.7923809001222,420.7923809001222,420.7923809001222,420.7923809001222,421.77457480016164,421.77457480016164,422.2924647000618,,,,,x,1,0.5077941999770701,None,,,,,2,001,2025-10-03_16h07.43.707,Motor Sequence 4.0,,2025.1.1,59.94779750708082,2025-10-03 16h08.08.348535 +0530,
-50,x,64,64,15,x,1,0.5424520999658853,None,,,,,15,64,64,0,422.3076846001204,,,,,422.2929907999933,422.3076846001204,423.29218830005266,423.29218830005266,423.29218830005266,423.29218830005266,423.30907850014046,424.2915096001234,424.2915096001234,424.8427790000569,,,,,x,1,0.5424520999658853,None,,,,,2,001,2025-10-03_16h07.43.707,Motor Sequence 4.0,,2025.1.1,59.94779750708082,2025-10-03 16h08.08.348535 +0530,
-150,z,65,65,14,z,1,0.44335160008631647,None,,,,,14,65,65,3,424.85831200005487,,,,,424.84328140015714,424.85831200005487,425.8415594000835,425.8415594000835,425.8415594000835,425.8415594000835,425.85896740015596,426.8573844002094,426.8573844002094,427.3079069000669,,,,,z,1,0.44335160008631647,None,,,,,2,001,2025-10-03_16h07.43.707,Motor Sequence 4.0,,2025.1.1,59.94779750708082,2025-10-03 16h08.08.348535 +0530,
150,v,66,66,17,v,1,0.549622799968347,None,,,,,17,66,66,1,427.3243712000549,,,,,427.30828840006143,427.3243712000549,428.3083728000056,428.3083728000056,428.3083728000056,428.3083728000056,428.325067400001,429.307377200108,429.307377200108,429.8578530000523,,,,,v,1,0.549622799968347,None,,,,,2,001,2025-10-03_16h07.43.707,Motor Sequence 4.0,,2025.1.1,59.94779750708082,2025-10-03 16h08.08.348535 +0530,
-50,x,67,67,16,x,1,0.7959934000391513,None,,,,,16,67,67,0,429.8742057001218,,,,,429.85830760002136,429.8742057001218,430.85737600014545,430.85737600014545,430.85737600014545,430.85737600014545,430.8744200000074,431.85810840013437,431.85810840013437,432.6586027001031,,,,,x,1,0.7959934000391513,None,,,,,2,001,2025-10-03_16h07.43.707,Motor Sequence 4.0,,2025.1.1,59.94779750708082,2025-10-03 16h08.08.348535 +0530,
50,c,68,68,18,c,1,0.6007974999956787,None,,,,,18,68,68,2,432.67523030005395,,,,,432.65909560001455,432.67523030005395,433.67458350001834,433.67458350001834,433.67458350001834,433.67458350001834,433.67458350001834,434.6744853002019,434.6744853002019,435.2915492001921,,,,,c,1,0.6007974999956787,None,,,,,2,001,2025-10-03_16h07.43.707,Motor Sequence 4.0,,2025.1.1,59.94779750708082,2025-10-03 16h08.08.348535 +0530,
-150,z,69,69,15,z,1,0.5548255001194775,None,,,,,15,69,69,3,435.30715120001696,,,,,435.2920477001462,435.30715120001696,436.3075496000238,436.3075496000238,436.3075496000238,436.3075496000238,436.3075496000238,437.3071387000382,437.3071387000382,437.8747921001632,,,,,z,1,0.5548255001194775,None,,,,,2,001,2025-10-03_16h07.43.707,Motor Sequence 4.0,,2025.1.1,59.94779750708082,2025-10-03 16h08.08.348535 +0530,
-150,z,70,70,16,z,1,0.4440418998710811,None,,,,,16,70,70,3,437.890617800178,,,,,437.8752865002025,437.890617800178,438.8895058000926,438.8895058000926,438.8895058000926,438.8895058000926,438.8895058000926,439.88978040008806,439.88978040008806,440.3403175000567,,,,,z,1,0.4440418998710811,None,,,,,2,001,2025-10-03_16h07.43.707,Motor Sequence 4.0,,2025.1.1,59.94779750708082,2025-10-03 16h08.08.348535 +0530,
150,v,71,71,18,v,1,0.5461572001222521,None,,,,,18,71,71,1,440.356343800202,,,,,440.340813399991,440.356343800202,441.3402521000244,441.3402521000244,441.3402521000244,441.3402521000244,441.35684610018507,442.3397481001448,442.3397481001448,442.8912009000778,,,,,v,1,0.5461572001222521,None,,,,,2,001,2025-10-03_16h07.43.707,Motor Sequence 4.0,,2025.1.1,59.94779750708082,2025-10-03 16h08.08.348535 +0530,
50,c,72,72,19,c,1,0.5852160998620093,None,,,,,19,72,72,2,442.9062917002011,,,,,442.89169220020995,442.9062917002011,443.90612800000235,443.90612800000235,443.90612800000235,443.90612800000235,443.90612800000235,444.906127900118,444.906127900118,445.50646340008825,,,,,c,1,0.5852160998620093,None,,,,,2,001,2025-10-03_16h07.43.707,Motor Sequence 4.0,,2025.1.1,59.94779750708082,2025-10-03 16h08.08.348535 +0530,
-150,z,73,73,17,z,1,0.41358389984816313,None,,,,,17,73,73,3,445.52252180012874,,,,,445.5069848001003,445.52252180012874,446.50599740003236,446.50599740003236,446.50599740003236,446.50599740003236,446.52243410004303,447.5061362001579,447.5061362001579,447.92352880002,,,,,z,1,0.41358389984816313,None,,,,,2,001,2025-10-03_16h07.43.707,Motor Sequence 4.0,,2025.1.1,59.94779750708082,2025-10-03 16h08.08.348535 +0530,
150,v,74,74,19,v,1,0.4109633001498878,None,,,,,19,74,74,1,447.9390162001364,,,,,447.92404020018876,447.9390162001364,448.9394693002105,448.9394693002105,448.9394693002105,448.9394693002105,448.9394693002105,449.93913230020553,449.93913230020553,450.35604480002075,,,,,v,1,0.4109633001498878,None,,,,,2,001,2025-10-03_16h07.43.707,Motor Sequence 4.0,,2025.1.1,59.94779750708082,2025-10-03 16h08.08.348535 +0530,
-50,x,75,75,17,x,1,0.961929599987343,None,,,,,17,75,75,0,450.37200119998306,,,,,450.3565576002002,450.37200119998306,451.3554385001771,451.3554385001771,451.3554385001771,451.3554385001771,451.3718705000356,452.3553488000762,452.3553488000762,453.3225428001024,,,,,x,1,0.961929599987343,None,,,,,2,001,2025-10-03_16h07.43.707,Motor Sequence 4.0,,2025.1.1,59.94779750708082,2025-10-03 16h08.08.348535 +0530,
-50,x,76,76,18,x,1,0.5420697999652475,None,,,,,18,76,76,0,453.3382263001986,,,,,453.32304679998197,453.3382263001986,454.3210538001731,454.3210538001731,454.3210538001731,454.3210538001731,454.33846440003254,455.3217294001952,455.3217294001952,455.87279940000735,,,,,x,1,0.5420697999652475,None,,,,,2,001,2025-10-03_16h07.43.707,Motor Sequence 4.0,,2025.1.1,59.94779750708082,2025-10-03 16h08.08.348535 +0530,
50,c,77,77,20,c,1,0.8716625000815839,None,,,,,20,77,77,2,455.8881535001565,,,,,455.87328950013034,455.8881535001565,456.88778570014983,456.88778570014983,456.88778570014983,456.88778570014983,456.88778570014983,457.8881416001823,457.8881416001823,458.77210390008986,,,,,c,1,0.8716625000815839,None,,,,,2,001,2025-10-03_16h07.43.707,Motor Sequence 4.0,,2025.1.1,59.94779750708082,2025-10-03 16h08.08.348535 +0530,
-50,x,78,78,19,x,1,1.045521300053224,None,,,,,19,78,78,0,458.78746940009296,,,,,458.7726233000867,458.78746940009296,459.7880248001311,459.7880248001311,459.7880248001311,459.7880248001311,459.7880248001311,460.78710880014114,460.78710880014114,461.8376136000734,,,,,x,1,1.045521300053224,None,,,,,2,001,2025-10-03_16h07.43.707,Motor Sequence 4.0,,2025.1.1,59.94779750708082,2025-10-03 16h08.08.348535 +0530,
150,v,79,79,20,v,1,0.3917730001267046,None,,,,,20,79,79,1,461.85385290021077,,,,,461.8381142001599,461.85385290021077,462.83730320003815,462.83730320003815,462.83730320003815,462.83730320003815,462.85386280016974,463.83701060013846,463.83701060013846,464.23779320018366,,,,,v,1,0.3917730001267046,None,,,,,2,001,2025-10-03_16h07.43.707,Motor Sequence 4.0,,2025.1.1,59.94779750708082,2025-10-03 16h08.08.348535 +0530,
-150,z,80,80,18,z,1,0.4505145000293851,None,,,,,18,80,80,3,464.25405910005793,,,,,464.23830060008913,464.25405910005793,465.2535027000122,465.2535027000122,465.2535027000122,465.2535027000122,465.2535027000122,466.25348980003037,466.25348980003037,466.72067090007477,,,,,z,1,0.4505145000293851,None,,,,,2,001,2025-10-03_16h07.43.707,Motor Sequence 4.0,,2025.1.1,59.94779750708082,2025-10-03 16h08.08.348535 +0530,
50,c,81,81,21,c,1,0.764227099949494,None,,,,,21,81,81,2,466.736577300122,,,,,466.721170200035,466.736577300122,467.71975460019894,467.71975460019894,467.71975460019894,467.71975460019894,467.73664880008437,468.7364889001474,468.7364889001474,469.5039016001392,,,,,c,1,0.764227099949494,None,,,,,2,001,2025-10-03_16h07.43.707,Motor Sequence 4.0,,2025.1.1,59.94779750708082,2025-10-03 16h08.08.348535 +0530,
-50,x,82,82,20,x,1,0.5733933998271823,None,,,,,20,82,82,0,469.5193510001991,,,,,469.50437700003386,469.5193510001991,470.5027127000503,470.5027127000503,470.5027127000503,470.5027127000503,470.51950170006603,471.5194192000199,471.5194192000199,472.103846100159,,,,,x,1,0.5733933998271823,None,,,,,2,001,2025-10-03_16h07.43.707,Motor Sequence 4.0,,2025.1.1,59.94779750708082,2025-10-03 16h08.08.348535 +0530,
-150,z,83,83,19,z,1,0.4793278998695314,None,,,,,19,83,83,3,472.1196074001491,,,,,472.10435870010406,472.1196074001491,473.11930460017174,473.11930460017174,473.11930460017174,473.11930460017174,473.11930460017174,474.11908280011266,474.11908280011266,474.60242580017075,,,,,z,1,0.4793278998695314,None,,,,,2,001,2025-10-03_16h07.43.707,Motor Sequence 4.0,,2025.1.1,59.94779750708082,2025-10-03 16h08.08.348535 +0530,
150,v,84,84,21,v,1,0.7227062999736518,None,,,,,21,84,84,1,474.6186400000006,,,,,474.60291730007157,474.6186400000006,475.6025641001761,475.6025641001761,475.6025641001761,475.6025641001761,475.61823290004395,476.6022548000328,476.6022548000328,477.3365036000032,,,,,v,1,0.7227062999736518,None,,,,,2,001,2025-10-03_16h07.43.707,Motor Sequence 4.0,,2025.1.1,59.94779750708082,2025-10-03 16h08.08.348535 +0530,
-150,z,85,85,20,z,1,0.561392999952659,None,,,,,20,85,85,3,477.3519425999839,,,,,477.33691930002533,477.3519425999839,478.35154940001667,478.35154940001667,478.35154940001667,478.35154940001667,478.35154940001667,479.3515455001034,479.3515455001034,479.91904700011946,,,,,z,1,0.561392999952659,None,,,,,2,001,2025-10-03_16h07.43.707,Motor Sequence 4.0,,2025.1.1,59.94779750708082,2025-10-03 16h08.08.348535 +0530,
-50,x,86,86,21,x,1,0.6290628002025187,None,,,,,21,86,86,0,479.9350791000761,,,,,479.9195605001878,479.9350791000761,480.9180215001106,480.9180215001106,480.9180215001106,480.9180215001106,480.9346501000691,481.93483759998344,481.93483759998344,482.56895280000754,,,,,x,1,0.6290628002025187,None,,,,,2,001,2025-10-03_16h07.43.707,Motor Sequence 4.0,,2025.1.1,59.94779750708082,2025-10-03 16h08.08.348535 +0530,
-150,z,87,87,21,z,1,0.529964999994263,None,,,,,21,87,87,3,482.58446370018646,,,,,482.5696010000538,482.58446370018646,483.584417300066,483.584417300066,483.584417300066,483.584417300066,483.584417300066,484.58462800015695,484.58462800015695,485.1187896002084,,,,,z,1,0.529964999994263,None,,,,,2,001,2025-10-03_16h07.43.707,Motor Sequence 4.0,,2025.1.1,59.94779750708082,2025-10-03 16h08.08.348535 +0530,
50,c,88,88,22,c,1,1.2729566998314112,None,,,,,22,88,88,2,485.1344934999943,,,,,485.1194371001329,485.1344934999943,486.1341807001736,486.1341807001736,486.1341807001736,486.1341807001736,486.1341807001736,487.13420920004137,487.13420920004137,488.41807920020074,,,,,c,1,1.2729566998314112,None,,,,,2,001,2025-10-03_16h07.43.707,Motor Sequence 4.0,,2025.1.1,59.94779750708082,2025-10-03 16h08.08.348535 +0530,
150,v,89,89,22,v,1,0.5574115000199527,None,,,,,22,89,89,1,488.43347769998945,,,,,488.4185876001138,488.43347769998945,489.41707190009765,489.41707190009765,489.41707190009765,489.41707190009765,489.4336901002098,490.4172198001761,490.4172198001761,490.984543700004,,,,,v,1,0.5574115000199527,None,,,,,2,001,2025-10-03_16h07.43.707,Motor Sequence 4.0,,2025.1.1,59.94779750708082,2025-10-03 16h08.08.348535 +0530,
150,v,90,90,23,v,1,1.150376700097695,None,,,,,23,90,90,1,491.0002247001976,,,,,490.9850537001621,491.0002247001976,491.98349890019745,491.98349890019745,491.98349890019745,491.98349890019745,492.0003347999882,493.00006930017844,493.00006930017844,494.1511392001994,,,,,v,1,1.150376700097695,None,,,,,2,001,2025-10-03_16h07.43.707,Motor Sequence 4.0,,2025.1.1,59.94779750708082,2025-10-03 16h08.08.348535 +0530,
-50,x,91,91,22,x,1,1.1571885999292135,None,,,,,22,91,91,0,494.1669486002065,,,,,494.15180830005556,494.1669486002065,495.166554100113,495.166554100113,495.166554100113,495.166554100113,495.166554100113,496.16612320020795,496.16612320020795,497.33360700006597,,,,,x,1,1.1571885999292135,None,,,,,2,001,2025-10-03_16h07.43.707,Motor Sequence 4.0,,2025.1.1,59.94779750708082,2025-10-03 16h08.08.348535 +0530,
50,c,92,92,23,c,1,1.1921174000017345,None,,,,,23,92,92,2,497.34925350011326,,,,,497.33408699999563,497.34925350011326,498.3494791002013,498.3494791002013,498.3494791002013,498.3494791002013,498.3494791002013,499.33260970003903,499.33260970003903,500.53276630002074,,,,,c,1,1.1921174000017345,None,,,,,2,001,2025-10-03_16h07.43.707,Motor Sequence 4.0,,2025.1.1,59.94779750708082,2025-10-03 16h08.08.348535 +0530,
-150,z,93,93,22,z,1,0.611658199923113,None,,,,,22,93,93,3,500.549107800005,,,,,500.53325920016505,500.549107800005,501.5323592000641,501.5323592000641,501.5323592000641,501.5323592000641,501.54866910004057,502.5490478000138,502.5490478000138,503.1657418999821,,,,,z,1,0.611658199923113,None,,,,,2,001,2025-10-03_16h07.43.707,Motor Sequence 4.0,,2025.1.1,59.94779750708082,2025-10-03 16h08.08.348535 +0530,
-50,x,94,94,23,x,1,0.5977290000300854,None,,,,,23,94,94,0,503.1819110000506,,,,,503.1662405000534,503.1819110000506,504.1650020000525,504.1650020000525,504.1650020000525,504.1650020000525,504.1819610001985,505.1644509001635,505.1644509001635,505.76625149999745,,,,,x,1,0.5977290000300854,None,,,,,2,001,2025-10-03_16h07.43.707,Motor Sequence 4.0,,2025.1.1,59.94779750708082,2025-10-03 16h08.08.348535 +0530,
50,c,95,95,24,c,1,0.5768815001938492,None,,,,,24,95,95,2,505.78180850017816,,,,,505.76672760001384,505.78180850017816,506.7814948000014,506.7814948000014,506.7814948000014,506.7814948000014,506.7814948000014,507.78157460014336,507.78157460014336,508.36547329998575,,,,,c,1,0.5768815001938492,None,,,,,2,001,2025-10-03_16h07.43.707,Motor Sequence 4.0,,2025.1.1,59.94779750708082,2025-10-03 16h08.08.348535 +0530,
-50,x,96,96,24,x,1,0.5295753998216242,None,,,,,24,96,96,0,508.3809605001006,,,,,508.3659479999915,508.3809605001006,509.3807715000585,509.3807715000585,509.3807715000585,509.3807715000585,509.3807715000585,510.381045400165,510.381045400165,510.9156309000682,,,,,x,1,0.5295753998216242,None,,,,,2,001,2025-10-03_16h07.43.707,Motor Sequence 4.0,,2025.1.1,59.94779750708082,2025-10-03 16h08.08.348535 +0530,
-150,z,97,97,23,z,1,0.8314710000995547,None,,,,,23,97,97,3,510.9312942000106,,,,,510.9161773000378,510.9312942000106,511.9307428000029,511.9307428000029,511.9307428000029,511.9307428000029,511.9307428000029,512.9308872001711,512.9308872001711,513.7650909000076,,,,,z,1,0.8314710000995547,None,,,,,2,001,2025-10-03_16h07.43.707,Motor Sequence 4.0,,2025.1.1,59.94779750708082,2025-10-03 16h08.08.348535 +0530,
150,v,98,98,24,v,1,0.5339320998173207,None,,,,,24,98,98,1,513.7806071999948,,,,,513.7655774999876,513.7806071999948,514.7802179001737,514.7802179001737,514.7802179001737,514.7802179001737,514.7802179001737,515.7642980001401,515.7642980001401,516.3164878000971,,,,,v,1,0.5339320998173207,None,,,,,2,001,2025-10-03_16h07.43.707,Motor Sequence 4.0,,2025.1.1,59.94779750708082,2025-10-03 16h08.08.348535 +0530,
-150,z,99,99,24,z,1,0.5557933000382036,None,,,,,24,99,99,3,516.3303900000174,,,,,516.3170229000971,516.3303900000174,517.3303194001783,517.3303194001783,517.3303194001783,517.3303194001783,517.3303194001783,518.33005400002,518.33005400002,518.8974297000095,,,,,z,1,0.5557933000382036,None,,,,,2,001,2025-10-03_16h07.43.707,Motor Sequence 4.0,,2025.1.1,59.94779750708082,2025-10-03 16h08.08.348535 +0530,
,,,,,,,,,,,,,,,,,,,,,,,,,,,,,,,,,,,,,,,,518.89763030014,518.9132952000946,523.9127941001207,523.8965423000045,2,001,2025-10-03_16h07.43.707,Motor Sequence 4.0,,2025.1.1,59.94779750708082,2025-10-03 16h08.08.348535 +0530,
