pos,corr_resp,thisN,thisTrialN,thisRepN,key_resp.keys,key_resp.corr,key_resp.rt,key_resp.duration,trials.thisRepN,trials.thisTrialN,trials.thisN,trials.thisIndex,trials_2.thisRepN,trials_2.thisTrialN,trials_2.thisN,trials_2.thisIndex,thisRow.t,notes,Welcome.started,text.started,Welcome.stopped,trial.started,Fixation.started,Line1.started,line2.started,line3.started,line4.started,Fixation.stopped,probe.started,key_resp.started,trial.stopped,trials.key_resp.keys,trials.key_resp.corr,trials.key_resp.rt,trials.key_resp.duration,trials_2.key_resp.keys,trials_2.key_resp.corr,trials_2.key_resp.rt,trials_2.key_resp.duration,Thank_You.started,text_2.started,text_2.stopped,Thank_You.stopped,participant,session,date,expName,expVersion,psychopyVersion,frameRate,expStart,
,,,,,,,,,,,,,,,,,,,0.010393999982625246,0.02786900009959936,3.011515400139615,,,,,,,,,,,,,,,,,,,,,,,3,001,2025-10-03_17h37.08.850,Motor Sequence 4.0,,2025.1.1,59.74875647179773,2025-10-03 17h37.20.456352 +0530,
-50,x,0,0,0,x,1,0.6608576001599431,None,0,0,0,0,,,,,3.0428963999729604,,,,,3.0227679000236094,3.0428963999729604,4.010947400005534,4.010947400005534,4.010947400005534,4.010947400005534,4.044426999986172,5.011344500118867,5.011344500118867,5.6931861999910325,x,1,0.6608576001599431,None,,,,,,,,,3,001,2025-10-03_17h37.08.850,Motor Sequence 4.0,,2025.1.1,59.74875647179773,2025-10-03 17h37.20.456352 +0530,
150,v,1,1,0,v,1,0.4441040998790413,None,0,1,1,1,,,,,5.70948990015313,,,,,5.693709900137037,5.70948990015313,6.694186600157991,6.694186600157991,6.694186600157991,6.694186600157991,6.710751499980688,7.694289700128138,7.694289700128138,8.14462640020065,v,1,0.4441040998790413,None,,,,,,,,,3,001,2025-10-03_17h37.08.850,Motor Sequence 4.0,,2025.1.1,59.74875647179773,2025-10-03 17h37.20.456352 +0530,
50,c,2,2,0,c,1,0.47054059989750385,None,0,2,2,2,,,,,8.160224399995059,,,,,8.145124100148678,8.160224399995059,9.144154299981892,9.144154299981892,9.144154299981892,9.144154299981892,9.160871300147846,10.144063499988988,10.144063499988988,10.627795699983835,c,1,0.47054059989750385,None,,,,,,,,,3,001,2025-10-03_17h37.08.850,Motor Sequence 4.0,,2025.1.1,59.74875647179773,2025-10-03 17h37.20.456352 +0530,
-150,z,3,3,0,z,1,0.4239676999859512,None,0,3,3,3,,,,,10.64363389997743,,,,,10.628322700038552,10.64363389997743,11.626877200091258,11.626877200091258,11.626877200091258,11.626877200091258,11.64352080016397,12.642356700031087,12.642356700031087,13.075886400183663,z,1,0.4239676999859512,None,,,,,,,,,3,001,2025-10-03_17h37.08.850,Motor Sequence 4.0,,2025.1.1,59.74875647179773,2025-10-03 17h37.20.456352 +0530,
-50,x,4,0,1,x,1,0.4402616999577731,None,1,0,4,0,,,,,13.09206260018982,,,,,13.076130700064823,13.09206260018982,14.077318000141531,14.077318000141531,14.077318000141531,14.077318000141531,14.093551700003445,15.076706000138074,15.076706000138074,15.526780300075188,x,1,0.4402616999577731,None,,,,,,,,,3,001,2025-10-03_17h37.08.850,Motor Sequence 4.0,,2025.1.1,59.74875647179773,2025-10-03 17h37.20.456352 +0530,
150,v,5,1,1,v,1,0.3974015999119729,None,1,1,5,1,,,,,15.54322350001894,,,,,15.52726300014183,15.54322350001894,16.526585299987346,16.526585299987346,16.526585299987346,16.526585299987346,16.54299410013482,17.526017900090665,17.526017900090665,17.927133500110358,v,1,0.3974015999119729,None,,,,,,,,,3,001,2025-10-03_17h37.08.850,Motor Sequence 4.0,,2025.1.1,59.74875647179773,2025-10-03 17h37.20.456352 +0530,
50,c,6,2,1,c,1,0.42824219982139766,None,1,2,6,2,,,,,17.942769200075418,,,,,17.92763330019079,17.942769200075418,18.926043700193986,18.926043700193986,18.926043700193986,18.926043700193986,18.94266980001703,19.925857600057498,19.925857600057498,20.35962860006839,c,1,0.42824219982139766,None,,,,,,,,,3,001,2025-10-03_17h37.08.850,Motor Sequence 4.0,,2025.1.1,59.74875647179773,2025-10-03 17h37.20.456352 +0530,
-150,z,7,3,1,z,1,0.3654324000235647,None,1,3,7,3,,,,,20.37585090007633,,,,,20.3601049000863,20.37585090007633,21.35938709997572,21.35938709997572,21.35938709997572,21.35938709997572,21.375470499973744,22.35933950007893,22.35933950007893,22.726606599986553,z,1,0.3654324000235647,None,,,,,,,,,3,001,2025-10-03_17h37.08.850,Motor Sequence 4.0,,2025.1.1,59.74875647179773,2025-10-03 17h37.20.456352 +0530,
-50,x,8,0,2,x,1,0.32579399994574487,None,2,0,8,0,,,,,22.741666000103578,,,,,22.727092900080606,22.741666000103578,23.726065800059587,23.726065800059587,23.726065800059587,23.726065800059587,23.7428470000159,24.726073099998757,24.726073099998757,25.0596895001363,x,1,0.32579399994574487,None,,,,,,,,,3,001,2025-10-03_17h37.08.850,Motor Sequence 4.0,,2025.1.1,59.74875647179773,2025-10-03 17h37.20.456352 +0530,
150,v,9,1,2,v,1,0.42197569995187223,None,2,1,9,1,,,,,25.074630200164393,,,,,25.060160499997437,25.074630200164393,26.059291100129485,26.059291100129485,26.059291100129485,26.059291100129485,26.0753520000726,27.075544100021943,27.075544100021943,27.509145700139925,v,1,0.42197569995187223,None,,,,,,,,,3,001,2025-10-03_17h37.08.850,Motor Sequence 4.0,,2025.1.1,59.74875647179773,2025-10-03 17h37.20.456352 +0530,
50,c,10,2,2,c,1,0.5199547000229359,None,2,2,10,2,,,,,27.524429300101474,,,,,27.509645099984482,27.524429300101474,28.508611700031906,28.508611700031906,28.508611700031906,28.508611700031906,28.525399200152606,29.508505000034347,29.508505000034347,30.042836300097406,c,1,0.5199547000229359,None,,,,,,,,,3,001,2025-10-03_17h37.08.850,Motor Sequence 4.0,,2025.1.1,59.74875647179773,2025-10-03 17h37.20.456352 +0530,
-150,z,11,3,2,z,1,0.31274030008353293,None,2,3,11,3,,,,,30.058252700138837,,,,,30.043304100167006,30.058252700138837,31.058453800156713,31.058453800156713,31.058453800156713,31.058453800156713,31.058453800156713,32.057736300164834,32.057736300164834,32.37498600012623,z,1,0.31274030008353293,None,,,,,,,,,3,001,2025-10-03_17h37.08.850,Motor Sequence 4.0,,2025.1.1,59.74875647179773,2025-10-03 17h37.20.456352 +0530,
-50,x,12,0,3,x,1,0.3009933000430465,None,3,0,12,0,,,,,32.390530599979684,,,,,32.37549230013974,32.390530599979684,33.37479760008864,33.37479760008864,33.37479760008864,33.37479760008864,33.39138390007429,34.37464110017754,34.37464110017754,34.69177130004391,x,1,0.3009933000430465,None,,,,,,,,,3,001,2025-10-03_17h37.08.850,Motor Sequence 4.0,,2025.1.1,59.74875647179773,2025-10-03 17h37.20.456352 +0530,
150,v,13,1,3,v,1,0.45096149994060397,None,3,1,13,1,,,,,34.70800149999559,,,,,34.69225269998424,34.70800149999559,35.691151099978015,35.691151099978015,35.691151099978015,35.691151099978015,35.70780099998228,36.69116130005568,36.69116130005568,37.157935600029305,v,1,0.45096149994060397,None,,,,,,,,,3,001,2025-10-03_17h37.08.850,Motor Sequence 4.0,,2025.1.1,59.74875647179773,2025-10-03 17h37.20.456352 +0530,
50,c,14,2,3,c,1,0.3657966998871416,None,3,2,14,2,,,,,37.17388690006919,,,,,37.158420300111175,37.17388690006919,38.15773229999468,38.15773229999468,38.15773229999468,38.15773229999468,38.174284000182524,39.15719810011797,39.15719810011797,39.524629400111735,c,1,0.3657966998871416,None,,,,,,,,,3,001,2025-10-03_17h37.08.850,Motor Sequence 4.0,,2025.1.1,59.74875647179773,2025-10-03 17h37.20.456352 +0530,
-150,z,15,3,3,z,1,0.3612774000503123,None,3,3,15,3,,,,,39.54063479998149,,,,,39.52511000004597,39.54063479998149,40.540233600186184,40.540233600186184,40.540233600186184,40.540233600186184,40.540233600186184,41.539940000046045,41.539940000046045,41.90729910018854,z,1,0.3612774000503123,None,,,,,,,,,3,001,2025-10-03_17h37.08.850,Motor Sequence 4.0,,2025.1.1,59.74875647179773,2025-10-03 17h37.20.456352 +0530,
-50,x,16,0,4,x,1,0.2773305999580771,None,4,0,16,0,,,,,41.92280700011179,,,,,41.907780500128865,41.92280700011179,42.90712800016627,42.90712800016627,42.90712800016627,42.90712800016627,42.92339940019883,43.9229252000805,43.9229252000805,44.20604720013216,x,1,0.2773305999580771,None,,,,,,,,,3,001,2025-10-03_17h37.08.850,Motor Sequence 4.0,,2025.1.1,59.74875647179773,2025-10-03 17h37.20.456352 +0530,
150,v,17,1,4,v,1,0.44414319982752204,None,4,1,17,1,,,,,44.22255640011281,,,,,44.20627020020038,44.22255640011281,45.20667350012809,45.20667350012809,45.20667350012809,45.20667350012809,45.223343200050294,46.20682780002244,46.20682780002244,46.655506200157106,v,1,0.44414319982752204,None,,,,,,,,,3,001,2025-10-03_17h37.08.850,Motor Sequence 4.0,,2025.1.1,59.74875647179773,2025-10-03 17h37.20.456352 +0530,
50,c,18,2,4,c,1,0.3863458000123501,None,4,2,18,2,,,,,46.6715591000393,,,,,46.65575650008395,46.6715591000393,47.65634750016034,47.65634750016034,47.65634750016034,47.65634750016034,47.672976000001654,48.65604260005057,48.65604260005057,49.05663580005057,c,1,0.3863458000123501,None,,,,,,,,,3,001,2025-10-03_17h37.08.850,Motor Sequence 4.0,,2025.1.1,59.74875647179773,2025-10-03 17h37.20.456352 +0530,
-150,z,19,3,4,z,1,0.3627754000481218,None,4,3,19,3,,,,,49.07230020011775,,,,,49.0571361000184,49.07230020011775,50.05584689998068,50.05584689998068,50.05584689998068,50.05584689998068,50.07257580012083,51.056207600049675,51.056207600049675,51.423304700059816,z,1,0.3627754000481218,None,,,,,,,,,3,001,2025-10-03_17h37.08.850,Motor Sequence 4.0,,2025.1.1,59.74875647179773,2025-10-03 17h37.20.456352 +0530,
-50,x,20,0,5,x,1,0.440506299957633,None,5,0,20,0,,,,,51.43875710014254,,,,,51.4237901000306,51.43875710014254,52.4226186000742,52.4226186000742,52.4226186000742,52.4226186000742,52.43881560000591,53.43927079997957,53.43927079997957,53.889389500021935,x,1,0.440506299957633,None,,,,,,,,,3,001,2025-10-03_17h37.08.850,Motor Sequence 4.0,,2025.1.1,59.74875647179773,2025-10-03 17h37.20.456352 +0530,
150,v,21,1,5,v,1,0.3083343000616878,None,5,1,21,1,,,,,53.90553340013139,,,,,53.88985600019805,53.90553340013139,54.88834810000844,54.88834810000844,54.88834810000844,54.88834810000844,54.904942400055006,55.88855620007962,55.88855620007962,56.206019200151786,v,1,0.3083343000616878,None,,,,,,,,,3,001,2025-10-03_17h37.08.850,Motor Sequence 4.0,,2025.1.1,59.74875647179773,2025-10-03 17h37.20.456352 +0530,
50,c,22,2,5,c,1,0.5655505999457091,None,5,2,22,2,,,,,56.22142710001208,,,,,56.206512900069356,56.22142710001208,57.20526330010034,57.20526330010034,57.20526330010034,57.20526330010034,57.22194800013676,58.221751200035214,58.221751200035214,58.78883450012654,c,1,0.5655505999457091,None,,,,,,,,,3,001,2025-10-03_17h37.08.850,Motor Sequence 4.0,,2025.1.1,59.74875647179773,2025-10-03 17h37.20.456352 +0530,
-150,z,23,3,5,z,1,0.3337978001218289,None,5,3,23,3,,,,,58.80484000011347,,,,,58.789336200105026,58.80484000011347,59.787865800084546,59.787865800084546,59.787865800084546,59.787865800084546,59.80466110003181,60.804774100193754,60.804774100193754,61.15510280011222,z,1,0.3337978001218289,None,,,,,,,,,3,001,2025-10-03_17h37.08.850,Motor Sequence 4.0,,2025.1.1,59.74875647179773,2025-10-03 17h37.20.456352 +0530,
-50,x,24,0,6,x,1,0.365850199945271,None,6,0,24,0,,,,,61.1714846000541,,,,,61.155592600116506,61.1714846000541,62.15435740002431,62.15435740002431,62.15435740002431,62.15435740002431,62.17083950014785,63.15415080008097,63.15415080008097,63.52265530009754,x,1,0.365850199945271,None,,,,,,,,,3,001,2025-10-03_17h37.08.850,Motor Sequence 4.0,,2025.1.1,59.74875647179773,2025-10-03 17h37.20.456352 +0530,
150,v,25,1,6,v,1,0.3334033000282943,None,6,1,25,1,,,,,63.537248000036925,,,,,63.52313600014895,63.537248000036925,64.5375684001483,64.5375684001483,64.5375684001483,64.5375684001483,64.5375684001483,65.53727620001882,65.53727620001882,65.8712472000625,v,1,0.3334033000282943,None,,,,,,,,,3,001,2025-10-03_17h37.08.850,Motor Sequence 4.0,,2025.1.1,59.74875647179773,2025-10-03 17h37.20.456352 +0530,
50,c,26,2,6,c,1,0.32262019999325275,None,6,2,26,2,,,,,65.88729470013641,,,,,65.8717194001656,65.88729470013641,66.87046910007484,66.87046910007484,66.87046910007484,66.87046910007484,66.88735360000283,67.87056060018949,67.87056060018949,68.20465680002235,c,1,0.32262019999325275,None,,,,,,,,,3,001,2025-10-03_17h37.08.850,Motor Sequence 4.0,,2025.1.1,59.74875647179773,2025-10-03 17h37.20.456352 +0530,
-150,z,27,3,6,z,1,0.37406440009362996,None,6,3,27,3,,,,,68.21994400001131,,,,,68.20514500001445,68.21994400001131,69.22067890013568,69.22067890013568,69.22067890013568,69.22067890013568,69.22067890013568,70.21994620002806,70.21994620002806,70.60398050001822,z,1,0.37406440009362996,None,,,,,,,,,3,001,2025-10-03_17h37.08.850,Motor Sequence 4.0,,2025.1.1,59.74875647179773,2025-10-03 17h37.20.456352 +0530,
-50,x,28,0,7,x,1,0.2942547001875937,None,7,0,28,0,,,,,70.61978870001622,,,,,70.60446240007877,70.61978870001622,71.60320280003361,71.60320280003361,71.60320280003361,71.60320280003361,71.620134399971,72.60320080001839,72.60320080001839,72.90311760012992,x,1,0.2942547001875937,None,,,,,,,,,3,001,2025-10-03_17h37.08.850,Motor Sequence 4.0,,2025.1.1,59.74875647179773,2025-10-03 17h37.20.456352 +0530,
150,v,29,1,7,v,1,0.3438734000083059,None,7,1,29,1,,,,,72.91957180015743,,,,,72.90363690000959,72.91957180015743,73.90315450006165,73.90315450006165,73.90315450006165,73.90315450006165,73.91945679998025,74.90251460019499,74.90251460019499,75.25329850008711,v,1,0.3438734000083059,None,,,,,,,,,3,001,2025-10-03_17h37.08.850,Motor Sequence 4.0,,2025.1.1,59.74875647179773,2025-10-03 17h37.20.456352 +0530,
50,c,30,2,7,c,1,0.337849099887535,None,7,2,30,2,,,,,75.26957360003144,,,,,75.25377620011568,75.26957360003144,76.25265160016716,76.25265160016716,76.25265160016716,76.25265160016716,76.26952740014531,77.2693384999875,77.2693384999875,77.61978140007704,c,1,0.337849099887535,None,,,,,,,,,3,001,2025-10-03_17h37.08.850,Motor Sequence 4.0,,2025.1.1,59.74875647179773,2025-10-03 17h37.20.456352 +0530,
-150,z,31,3,7,z,1,0.43015210004523396,None,7,3,31,3,,,,,77.6349618001841,,,,,77.62036200007424,77.6349618001841,78.61911140009761,78.61911140009761,78.61911140009761,78.61911140009761,78.63582810014486,79.6183596001938,79.6183596001938,80.05291540012695,z,1,0.43015210004523396,None,,,,,,,,,3,001,2025-10-03_17h37.08.850,Motor Sequence 4.0,,2025.1.1,59.74875647179773,2025-10-03 17h37.20.456352 +0530,
-50,x,32,0,8,x,1,0.2922380000818521,None,8,0,32,0,,,,,80.06834670016542,,,,,80.05338180018589,80.06834670016542,81.06866990006529,81.06866990006529,81.06866990006529,81.06866990006529,81.06866990006529,82.05206710007042,82.05206710007042,82.35276290006004,x,1,0.2922380000818521,None,,,,,,,,,3,001,2025-10-03_17h37.08.850,Motor Sequence 4.0,,2025.1.1,59.74875647179773,2025-10-03 17h37.20.456352 +0530,
150,v,33,1,8,v,1,0.5832432999741286,None,8,1,33,1,,,,,82.3679611000698,,,,,82.3532414000947,82.3679611000698,83.36838550004177,83.36838550004177,83.36838550004177,83.36838550004177,83.36838550004177,84.36821340001188,84.36821340001188,84.96894470020197,v,1,0.5832432999741286,None,,,,,,,,,3,001,2025-10-03_17h37.08.850,Motor Sequence 4.0,,2025.1.1,59.74875647179773,2025-10-03 17h37.20.456352 +0530,
50,c,34,2,8,v,0,0.4727673998568207,None,8,2,34,2,,,,,84.98469610000029,,,,,84.9694676999934,84.98469610000029,85.98480980005115,85.98480980005115,85.98480980005115,85.98480980005115,85.98480980005115,86.98483920004219,86.98483920004219,87.46864069998264,v,0,0.4727673998568207,None,,,,,,,,,3,001,2025-10-03_17h37.08.850,Motor Sequence 4.0,,2025.1.1,59.74875647179773,2025-10-03 17h37.20.456352 +0530,
-150,z,35,3,8,x,0,0.4352021000813693,None,8,3,35,3,,,,,87.48419970017858,,,,,87.46912230015732,87.48419970017858,88.46763570001349,88.46763570001349,88.46763570001349,88.46763570001349,88.48433210002258,89.4842263001483,89.4842263001483,89.93328390014358,x,0,0.4352021000813693,None,,,,,,,,,3,001,2025-10-03_17h37.08.850,Motor Sequence 4.0,,2025.1.1,59.74875647179773,2025-10-03 17h37.20.456352 +0530,
-50,x,36,0,9,x,1,0.4211154000367969,None,9,0,36,0,,,,,89.95090200006962,,,,,89.93368310015649,89.95090200006962,90.93424780014902,90.93424780014902,90.93424780014902,90.93424780014902,90.95092230010778,91.93416100018658,91.93416100018658,92.36792069999501,x,1,0.4211154000367969,None,,,,,,,,,3,001,2025-10-03_17h37.08.850,Motor Sequence 4.0,,2025.1.1,59.74875647179773,2025-10-03 17h37.20.456352 +0530,
150,v,37,1,9,v,1,0.3727214001119137,None,9,1,37,1,,,,,92.38373530004174,,,,,92.3683915999718,92.38373530004174,93.36721900012344,93.36721900012344,93.36721900012344,93.36721900012344,93.38376160012558,94.38394380011596,94.38394380011596,94.76771569997072,v,1,0.3727214001119137,None,,,,,,,,,3,001,2025-10-03_17h37.08.850,Motor Sequence 4.0,,2025.1.1,59.74875647179773,2025-10-03 17h37.20.456352 +0530,
50,c,38,2,9,c,1,0.3840549001470208,None,9,2,38,2,,,,,94.7833330000285,,,,,94.76820100005716,94.7833330000285,95.7837915001437,95.7837915001437,95.7837915001437,95.7837915001437,95.7837915001437,96.78297729999758,96.78297729999758,97.18368890020065,c,1,0.3840549001470208,None,,,,,,,,,3,001,2025-10-03_17h37.08.850,Motor Sequence 4.0,,2025.1.1,59.74875647179773,2025-10-03 17h37.20.456352 +0530,
-150,z,39,3,9,z,1,0.3950298000127077,None,9,3,39,3,,,,,97.19960920000449,,,,,97.18420370016247,97.19960920000449,98.18337740004063,98.18337740004063,98.18337740004063,98.18337740004063,98.19986360007897,99.1830065001268,99.1830065001268,99.58253310015425,z,1,0.3950298000127077,None,,,,,,,,,3,001,2025-10-03_17h37.08.850,Motor Sequence 4.0,,2025.1.1,59.74875647179773,2025-10-03 17h37.20.456352 +0530,
-50,x,40,0,10,x,1,0.5300535000860691,None,10,0,40,0,,,,,99.59888760000467,,,,,99.58276250003837,99.59888760000467,100.58260990004055,100.58260990004055,100.58260990004055,100.58260990004055,100.59957180009224,101.58227710006759,101.58227710006759,102.1167971000541,x,1,0.5300535000860691,None,,,,,,,,,3,001,2025-10-03_17h37.08.850,Motor Sequence 4.0,,2025.1.1,59.74875647179773,2025-10-03 17h37.20.456352 +0530,
150,v,41,1,10,v,1,0.40406750002875924,None,10,1,41,1,,,,,102.13241420011036,,,,,102.11728360014968,102.13241420011036,103.13231830019504,103.13231830019504,103.13231830019504,103.13231830019504,103.13231830019504,104.13238760014065,104.13238760014065,104.54976830002852,v,1,0.40406750002875924,None,,,,,,,,,3,001,2025-10-03_17h37.08.850,Motor Sequence 4.0,,2025.1.1,59.74875647179773,2025-10-03 17h37.20.456352 +0530,
50,c,42,2,10,c,1,0.4081476000137627,None,10,2,42,2,,,,,104.5653807001654,,,,,104.5502381999977,104.5653807001654,105.54944390011951,105.54944390011951,105.54944390011951,105.54944390011951,105.56549410009757,106.56555150006898,106.56555150006898,106.98256460018456,c,1,0.4081476000137627,None,,,,,,,,,3,001,2025-10-03_17h37.08.850,Motor Sequence 4.0,,2025.1.1,59.74875647179773,2025-10-03 17h37.20.456352 +0530,
-150,z,43,3,10,z,1,0.3713762001134455,None,10,3,43,3,,,,,106.99874090007506,,,,,106.98304920014925,106.99874090007506,107.98178120004013,107.98178120004013,107.98178120004013,107.98178120004013,107.99881980009377,108.98190440004691,108.98190440004691,109.36574740009382,z,1,0.3713762001134455,None,,,,,,,,,3,001,2025-10-03_17h37.08.850,Motor Sequence 4.0,,2025.1.1,59.74875647179773,2025-10-03 17h37.20.456352 +0530,
-50,x,44,0,11,x,1,0.3901954998727888,None,11,0,44,0,,,,,109.3817792001646,,,,,109.36624100012705,109.3817792001646,110.36492440011352,110.36492440011352,110.36492440011352,110.36492440011352,110.3816168999765,111.36514640017413,111.36514640017413,111.76563709997572,x,1,0.3901954998727888,None,,,,,,,,,3,001,2025-10-03_17h37.08.850,Motor Sequence 4.0,,2025.1.1,59.74875647179773,2025-10-03 17h37.20.456352 +0530,
150,v,45,1,11,v,1,0.43428919999860227,None,11,1,45,1,,,,,111.78120149997994,,,,,111.7661332001444,111.78120149997994,112.78125400003046,112.78125400003046,112.78125400003046,112.78125400003046,112.78125400003046,113.78148850006983,113.78148850006983,114.231364000123,v,1,0.43428919999860227,None,,,,,,,,,3,001,2025-10-03_17h37.08.850,Motor Sequence 4.0,,2025.1.1,59.74875647179773,2025-10-03 17h37.20.456352 +0530,
50,c,46,2,11,c,1,0.4611933999694884,None,11,2,46,2,,,,,114.24817410018295,,,,,114.23185180011205,114.24817410018295,115.23070680000819,115.23070680000819,115.23070680000819,115.23070680000819,115.24834930012003,116.23085459996946,116.23085459996946,116.69767490006052,c,1,0.4611933999694884,None,,,,,,,,,3,001,2025-10-03_17h37.08.850,Motor Sequence 4.0,,2025.1.1,59.74875647179773,2025-10-03 17h37.20.456352 +0530,
-150,z,47,3,11,z,1,0.40082450001500547,None,11,3,47,3,,,,,116.7132922001183,,,,,116.69808250013739,116.7132922001183,117.69762800005265,117.69762800005265,117.69762800005265,117.69762800005265,117.71427140012383,118.69718240015209,118.69718240015209,119.1145483001601,z,1,0.40082450001500547,None,,,,,,,,,3,001,2025-10-03_17h37.08.850,Motor Sequence 4.0,,2025.1.1,59.74875647179773,2025-10-03 17h37.20.456352 +0530,
-50,x,48,0,12,x,1,0.3955455000977963,None,12,0,48,0,,,,,119.13052340014838,,,,,119.11503119999543,119.13052340014838,120.12947390018962,120.12947390018962,120.12947390018962,120.12947390018962,120.12947390018962,121.12848670012318,121.12848670012318,121.5293233001139,x,1,0.3955455000977963,None,,,,,,,,,3,001,2025-10-03_17h37.08.850,Motor Sequence 4.0,,2025.1.1,59.74875647179773,2025-10-03 17h37.20.456352 +0530,
150,v,49,1,12,v,1,0.5428204000927508,None,12,1,49,1,,,,,121.54482170008123,,,,,121.52955340011977,121.54482170008123,122.52867100015283,122.52867100015283,122.52867100015283,122.52867100015283,122.54520240006968,123.52852270007133,123.52852270007133,124.08015340007842,v,1,0.5428204000927508,None,,,,,,,,,3,001,2025-10-03_17h37.08.850,Motor Sequence 4.0,,2025.1.1,59.74875647179773,2025-10-03 17h37.20.456352 +0530,
50,c,50,2,12,c,1,0.42808610014617443,None,12,2,50,2,,,,,124.09598079998977,,,,,124.08059859997593,124.09598079998977,125.09600050002337,125.09600050002337,125.09600050002337,125.09600050002337,125.09600050002337,126.07951240008697,126.07951240008697,126.51348090008833,c,1,0.42808610014617443,None,,,,,,,,,3,001,2025-10-03_17h37.08.850,Motor Sequence 4.0,,2025.1.1,59.74875647179773,2025-10-03 17h37.20.456352 +0530,
-150,z,51,3,12,z,1,0.42571780015714467,None,12,3,51,3,,,,,126.52954420004971,,,,,126.51397370011546,126.52954420004971,127.51308699999936,127.51308699999936,127.51308699999936,127.51308699999936,127.52969010011293,128.5130719000008,128.5130719000008,128.9457361001987,z,1,0.42571780015714467,None,,,,,,,,,3,001,2025-10-03_17h37.08.850,Motor Sequence 4.0,,2025.1.1,59.74875647179773,2025-10-03 17h37.20.456352 +0530,
-50,x,52,0,13,x,1,0.34879680001176894,None,13,0,52,0,,,,,128.9617088001687,,,,,128.9462323000189,128.9617088001687,129.9457925001625,129.9457925001625,129.9457925001625,129.9457925001625,129.96255880012177,130.94553330005147,130.94553330005147,131.29615850001574,x,1,0.34879680001176894,None,,,,,,,,,3,001,2025-10-03_17h37.08.850,Motor Sequence 4.0,,2025.1.1,59.74875647179773,2025-10-03 17h37.20.456352 +0530,
150,v,53,1,13,v,1,0.39995529991574585,None,13,1,53,1,,,,,131.31246810010634,,,,,131.29663510015234,131.31246810010634,132.29547050013207,132.29547050013207,132.29547050013207,132.29547050013207,132.31189420004375,133.29547860007733,133.29547860007733,133.71222200011835,v,1,0.39995529991574585,None,,,,,,,,,3,001,2025-10-03_17h37.08.850,Motor Sequence 4.0,,2025.1.1,59.74875647179773,2025-10-03 17h37.20.456352 +0530,
50,c,54,2,13,c,1,0.6206261001061648,None,13,2,54,2,,,,,133.72844119998626,,,,,133.71270040003583,133.72844119998626,134.71187890018336,134.71187890018336,134.71187890018336,134.71187890018336,134.7286681002006,135.71200900012627,135.71200900012627,136.3458975001704,c,1,0.6206261001061648,None,,,,,,,,,3,001,2025-10-03_17h37.08.850,Motor Sequence 4.0,,2025.1.1,59.74875647179773,2025-10-03 17h37.20.456352 +0530,
-150,z,55,3,13,z,1,0.4167168999556452,None,13,3,55,3,,,,,136.36102370009758,,,,,136.34638190013357,136.36102370009758,137.36194920004345,137.36194920004345,137.36194920004345,137.36194920004345,137.36194920004345,138.36155620007776,138.36155620007776,138.79417170002125,z,1,0.4167168999556452,None,,,,,,,,,3,001,2025-10-03_17h37.08.850,Motor Sequence 4.0,,2025.1.1,59.74875647179773,2025-10-03 17h37.20.456352 +0530,
-50,x,56,0,14,x,1,0.5499935001134872,None,14,0,56,0,,,,,138.81146480003372,,,,,138.79445330007002,138.81146480003372,139.7945968999993,139.7945968999993,139.7945968999993,139.7945968999993,139.81158890016377,140.79443830018863,140.79443830018863,141.36116660013795,x,1,0.5499935001134872,None,,,,,,,,,3,001,2025-10-03_17h37.08.850,Motor Sequence 4.0,,2025.1.1,59.74875647179773,2025-10-03 17h37.20.456352 +0530,
150,v,57,1,14,v,1,0.5152334999293089,None,14,1,57,1,,,,,141.37650230014697,,,,,141.3613843000494,141.37650230014697,142.36108920001425,142.36108920001425,142.36108920001425,142.36108920001425,142.3774604999926,143.36071790009737,143.36071790009737,143.8785120001994,v,1,0.5152334999293089,None,,,,,,,,,3,001,2025-10-03_17h37.08.850,Motor Sequence 4.0,,2025.1.1,59.74875647179773,2025-10-03 17h37.20.456352 +0530,
50,c,58,2,14,c,1,0.5032160999253392,None,14,2,58,2,,,,,143.89366669999436,,,,,143.87897720001638,143.89366669999436,144.89427170017734,144.89427170017734,144.89427170017734,144.89427170017734,144.89427170017734,145.89388040010817,145.89388040010817,146.41140400012955,c,1,0.5032160999253392,None,,,,,,,,,3,001,2025-10-03_17h37.08.850,Motor Sequence 4.0,,2025.1.1,59.74875647179773,2025-10-03 17h37.20.456352 +0530,
-150,z,59,3,14,z,1,0.46620830008760095,None,14,3,59,3,,,,,146.42664170009084,,,,,146.41192730003968,146.42664170009084,147.42694210004993,147.42694210004993,147.42694210004993,147.42694210004993,147.42694210004993,148.4271080000326,148.4271080000326,148.89407400018536,z,1,0.46620830008760095,None,,,,,,,,,3,001,2025-10-03_17h37.08.850,Motor Sequence 4.0,,2025.1.1,59.74875647179773,2025-10-03 17h37.20.456352 +0530,
-50,x,60,0,15,x,1,0.4462532000616193,None,15,0,60,0,,,,,148.90938180009834,,,,,148.89455540012568,148.90938180009834,149.89339230000041,149.89339230000041,149.89339230000041,149.89339230000041,149.90987860015593,150.89332030015066,150.89332030015066,151.34383060014807,x,1,0.4462532000616193,None,,,,,,,,,3,001,2025-10-03_17h37.08.850,Motor Sequence 4.0,,2025.1.1,59.74875647179773,2025-10-03 17h37.20.456352 +0530,
150,v,61,1,15,v,1,0.471697999862954,None,15,1,61,1,,,,,151.35936820018105,,,,,151.34430330013856,151.35936820018105,152.34297170001082,152.34297170001082,152.34297170001082,152.34297170001082,152.35993320005946,153.35942950006574,153.35942950006574,153.84345210017636,v,1,0.471697999862954,None,,,,,,,,,3,001,2025-10-03_17h37.08.850,Motor Sequence 4.0,,2025.1.1,59.74875647179773,2025-10-03 17h37.20.456352 +0530,
50,c,62,2,15,c,1,0.38953049993142486,None,15,2,62,2,,,,,153.85916330013424,,,,,153.84391390020028,153.85916330013424,154.8426471001003,154.8426471001003,154.8426471001003,154.8426471001003,154.85924990009516,155.84250600007363,155.84250600007363,156.24298540013842,c,1,0.38953049993142486,None,,,,,,,,,3,001,2025-10-03_17h37.08.850,Motor Sequence 4.0,,2025.1.1,59.74875647179773,2025-10-03 17h37.20.456352 +0530,
-150,z,63,3,15,z,1,0.48589579993858933,None,15,3,63,3,,,,,156.2581290001981,,,,,156.24345070007257,156.2581290001981,157.2422983001452,157.2422983001452,157.2422983001452,157.2422983001452,157.25893890019506,158.24241230008192,158.24241230008192,158.74254210013896,z,1,0.48589579993858933,None,,,,,,,,,3,001,2025-10-03_17h37.08.850,Motor Sequence 4.0,,2025.1.1,59.74875647179773,2025-10-03 17h37.20.456352 +0530,
-50,x,64,0,16,x,1,0.4077095000538975,None,16,0,64,0,,,,,158.7581864001695,,,,,158.74301330000162,158.7581864001695,159.74190440005623,159.74190440005623,159.74190440005623,159.74190440005623,159.75855110003613,160.74177450011484,160.74177450011484,161.15912460000254,x,1,0.4077095000538975,None,,,,,,,,,3,001,2025-10-03_17h37.08.850,Motor Sequence 4.0,,2025.1.1,59.74875647179773,2025-10-03 17h37.20.456352 +0530,
150,v,65,1,16,v,1,0.4024684999603778,None,16,1,65,1,,,,,161.1749363001436,,,,,161.1596105999779,161.1749363001436,162.15884410007857,162.15884410007857,162.15884410007857,162.15884410007857,162.17466590018012,163.15814010007307,163.15814010007307,163.5755031001754,v,1,0.4024684999603778,None,,,,,,,,,3,001,2025-10-03_17h37.08.850,Motor Sequence 4.0,,2025.1.1,59.74875647179773,2025-10-03 17h37.20.456352 +0530,
50,c,66,2,16,c,1,0.40893010003492236,None,16,2,66,2,,,,,163.59137510019355,,,,,163.57599689997733,163.59137510019355,164.57451870013028,164.57451870013028,164.57451870013028,164.57451870013028,164.59136750013568,165.57466020016,165.57466020016,165.99155260017142,c,1,0.40893010003492236,None,,,,,,,,,3,001,2025-10-03_17h37.08.850,Motor Sequence 4.0,,2025.1.1,59.74875647179773,2025-10-03 17h37.20.456352 +0530,
-150,z,67,3,16,z,1,0.41288359998725355,None,16,3,67,3,,,,,166.0069836000912,,,,,165.99203349999152,166.0069836000912,166.99099360010587,166.99099360010587,166.99099360010587,166.99099360010587,167.00764079997316,167.99109470006078,167.99109470006078,168.407989700092,z,1,0.41288359998725355,None,,,,,,,,,3,001,2025-10-03_17h37.08.850,Motor Sequence 4.0,,2025.1.1,59.74875647179773,2025-10-03 17h37.20.456352 +0530,
-50,x,68,0,17,x,1,0.3776921001262963,None,17,0,68,0,,,,,168.4243164001964,,,,,168.4084627002012,168.4243164001964,169.40739529998973,169.40739529998973,169.40739529998973,169.40739529998973,169.42364100017585,170.4070911000017,170.4070911000017,170.79128650017083,x,1,0.3776921001262963,None,,,,,,,,,3,001,2025-10-03_17h37.08.850,Motor Sequence 4.0,,2025.1.1,59.74875647179773,2025-10-03 17h37.20.456352 +0530,
150,v,69,1,17,v,1,0.4962035999633372,None,17,1,69,1,,,,,170.80665270006284,,,,,170.7917789001949,170.80665270006284,171.790470500011,171.790470500011,171.790470500011,171.790470500011,171.80732850008644,172.79043840011582,172.79043840011582,173.29116060002707,v,1,0.4962035999633372,None,,,,,,,,,3,001,2025-10-03_17h37.08.850,Motor Sequence 4.0,,2025.1.1,59.74875647179773,2025-10-03 17h37.20.456352 +0530,
50,c,70,2,17,c,1,0.7410261000040919,None,17,2,70,2,,,,,173.3067431000527,,,,,173.2916437999811,173.3067431000527,174.30680630006827,174.30680630006827,174.30680630006827,174.30680630006827,174.30680630006827,175.30658129998483,175.30658129998483,176.05758300004527,c,1,0.7410261000040919,None,,,,,,,,,3,001,2025-10-03_17h37.08.850,Motor Sequence 4.0,,2025.1.1,59.74875647179773,2025-10-03 17h37.20.456352 +0530,
-150,z,71,3,17,z,1,0.4153699001763016,None,17,3,71,3,,,,,176.07294760015793,,,,,176.058053500019,176.07294760015793,177.07352580013685,177.07352580013685,177.07352580013685,177.07352580013685,177.07352580013685,178.07298380020075,178.07298380020075,178.4911710000597,z,1,0.4153699001763016,None,,,,,,,,,3,001,2025-10-03_17h37.08.850,Motor Sequence 4.0,,2025.1.1,59.74875647179773,2025-10-03 17h37.20.456352 +0530,
-50,x,72,0,18,x,1,0.8184689998161048,None,18,0,72,0,,,,,178.5059978000354,,,,,178.49164020013995,178.5059978000354,179.5064374001231,179.5064374001231,179.5064374001231,179.5064374001231,179.5064374001231,180.50610820017755,180.50610820017755,181.34007260017097,x,1,0.8184689998161048,None,,,,,,,,,3,001,2025-10-03_17h37.08.850,Motor Sequence 4.0,,2025.1.1,59.74875647179773,2025-10-03 17h37.20.456352 +0530,
150,v,73,1,18,v,1,0.3874039000365883,None,18,1,73,1,,,,,181.35585719998926,,,,,181.34055380010977,181.35585719998926,182.33832570002414,182.33832570002414,182.33832570002414,182.33832570002414,182.35593020007946,183.33918150002137,183.33918150002137,183.73951590014622,v,1,0.3874039000365883,None,,,,,,,,,3,001,2025-10-03_17h37.08.850,Motor Sequence 4.0,,2025.1.1,59.74875647179773,2025-10-03 17h37.20.456352 +0530,
50,c,74,2,18,c,1,0.5631244000978768,None,18,2,74,2,,,,,183.75569060002454,,,,,183.7400091001764,183.75569060002454,184.73903629998676,184.73903629998676,184.73903629998676,184.73903629998676,184.75530990003608,185.73884700005874,185.73884700005874,186.30568340001628,c,1,0.5631244000978768,None,,,,,,,,,3,001,2025-10-03_17h37.08.850,Motor Sequence 4.0,,2025.1.1,59.74875647179773,2025-10-03 17h37.20.456352 +0530,
-150,z,75,3,18,z,1,0.40962169994600117,None,18,3,75,3,,,,,186.32068930007517,,,,,186.30615309998393,186.32068930007517,187.30517269996926,187.30517269996926,187.30517269996926,187.30517269996926,187.3220778000541,188.30450109997764,188.30450109997764,188.7217749999836,z,1,0.40962169994600117,None,,,,,,,,,3,001,2025-10-03_17h37.08.850,Motor Sequence 4.0,,2025.1.1,59.74875647179773,2025-10-03 17h37.20.456352 +0530,
-50,x,76,0,19,x,1,0.44376279995776713,None,19,0,76,0,,,,,188.73791360016912,,,,,188.72226190008223,188.73791360016912,189.72144820005633,189.72144820005633,189.72144820005633,189.72144820005633,189.73814920010045,190.72148980014026,190.72148980014026,191.17202790011652,x,1,0.44376279995776713,None,,,,,,,,,3,001,2025-10-03_17h37.08.850,Motor Sequence 4.0,,2025.1.1,59.74875647179773,2025-10-03 17h37.20.456352 +0530,
150,v,77,1,19,v,1,0.5750244001392275,None,19,1,77,1,,,,,191.18815260007977,,,,,191.17250880016945,191.18815260007977,192.1710789001081,192.1710789001081,192.1710789001081,192.1710789001081,192.1879137000069,193.17128780018538,193.17128780018538,193.75522819999605,v,1,0.5750244001392275,None,,,,,,,,,3,001,2025-10-03_17h37.08.850,Motor Sequence 4.0,,2025.1.1,59.74875647179773,2025-10-03 17h37.20.456352 +0530,
50,c,78,2,19,c,1,0.896194500150159,None,19,2,78,2,,,,,193.77065630001016,,,,,193.75570320012048,193.77065630001016,194.77057380019687,194.77057380019687,194.77057380019687,194.77057380019687,194.77057380019687,195.77086490020156,195.77086490020156,196.67143500014208,c,1,0.896194500150159,None,,,,,,,,,3,001,2025-10-03_17h37.08.850,Motor Sequence 4.0,,2025.1.1,59.74875647179773,2025-10-03 17h37.20.456352 +0530,
-150,z,79,3,19,z,1,0.3667583998758346,None,19,3,79,3,,,,,196.68678420013748,,,,,196.67189530003816,196.68678420013748,197.6872341001872,197.6872341001872,197.6872341001872,197.6872341001872,197.6872341001872,198.68712979997508,198.68712979997508,199.05453369999304,z,1,0.3667583998758346,None,,,,,,,,,3,001,2025-10-03_17h37.08.850,Motor Sequence 4.0,,2025.1.1,59.74875647179773,2025-10-03 17h37.20.456352 +0530,
-50,x,80,0,20,x,1,0.4397925999946892,None,20,0,80,0,,,,,199.07002550014295,,,,,199.05501670017838,199.07002550014295,200.07016280014068,200.07016280014068,200.07016280014068,200.07016280014068,200.07016280014068,201.07005019998178,201.07005019998178,201.52039630012587,x,1,0.4397925999946892,None,,,,,,,,,3,001,2025-10-03_17h37.08.850,Motor Sequence 4.0,,2025.1.1,59.74875647179773,2025-10-03 17h37.20.456352 +0530,
150,v,81,1,20,v,1,0.47976829996332526,None,20,1,81,1,,,,,201.53569509997033,,,,,201.52088170009665,201.53569509997033,202.5199383001309,202.5199383001309,202.5199383001309,202.5199383001309,202.53676960011944,203.53647960000671,203.53647960000671,204.02069930010475,v,1,0.47976829996332526,None,,,,,,,,,3,001,2025-10-03_17h37.08.850,Motor Sequence 4.0,,2025.1.1,59.74875647179773,2025-10-03 17h37.20.456352 +0530,
50,c,82,2,20,c,1,0.4503250999841839,None,20,2,82,2,,,,,204.03609300008975,,,,,204.0211835000664,204.03609300008975,205.03602350014262,205.03602350014262,205.03602350014262,205.03602350014262,205.03602350014262,206.03622240014374,206.03622240014374,206.50333650014363,c,1,0.4503250999841839,None,,,,,,,,,3,001,2025-10-03_17h37.08.850,Motor Sequence 4.0,,2025.1.1,59.74875647179773,2025-10-03 17h37.20.456352 +0530,
-150,z,83,3,20,z,1,0.41016480000689626,None,20,3,83,3,,,,,206.51936740009114,,,,,206.503816800192,206.51936740009114,207.5193473000545,207.5193473000545,207.5193473000545,207.5193473000545,207.5193473000545,208.5026517000515,208.5026517000515,208.91994230006821,z,1,0.41016480000689626,None,,,,,,,,,3,001,2025-10-03_17h37.08.850,Motor Sequence 4.0,,2025.1.1,59.74875647179773,2025-10-03 17h37.20.456352 +0530,
-50,x,84,0,21,x,1,0.4257378000766039,None,21,0,84,0,,,,,208.93544710008428,,,,,208.92042340012267,208.93544710008428,209.9191447000485,209.9191447000485,209.9191447000485,209.9191447000485,209.93567840009928,210.93408130016178,210.93408130016178,211.36922990018502,x,1,0.4257378000766039,None,,,,,,,,,3,001,2025-10-03_17h37.08.850,Motor Sequence 4.0,,2025.1.1,59.74875647179773,2025-10-03 17h37.20.456352 +0530,
150,v,85,1,21,v,1,0.5020943998824805,None,21,1,85,1,,,,,211.38412680011243,,,,,211.3697079999838,211.38412680011243,212.3686157001648,212.3686157001648,212.3686157001648,212.3686157001648,212.38545870012604,213.3682462000288,213.3682462000288,213.8844539001584,v,1,0.5020943998824805,None,,,,,,,,,3,001,2025-10-03_17h37.08.850,Motor Sequence 4.0,,2025.1.1,59.74875647179773,2025-10-03 17h37.20.456352 +0530,
50,c,86,2,21,c,1,0.5924744999501854,None,21,2,86,2,,,,,213.9014059000183,,,,,213.8846994000487,213.9014059000183,214.88387830019929,214.88387830019929,214.88387830019929,214.88387830019929,214.90151420002803,215.88473250018433,215.88473250018433,216.48525640019216,c,1,0.5924744999501854,None,,,,,,,,,3,001,2025-10-03_17h37.08.850,Motor Sequence 4.0,,2025.1.1,59.74875647179773,2025-10-03 17h37.20.456352 +0530,
-150,z,87,3,21,z,1,0.427804599981755,None,21,3,87,3,,,,,216.50050950003788,,,,,216.48571950010955,216.50050950003788,217.48477550013922,217.48477550013922,217.48477550013922,217.48477550013922,217.50144650018774,218.48459060001187,218.48459060001187,218.91752420016564,z,1,0.427804599981755,None,,,,,,,,,3,001,2025-10-03_17h37.08.850,Motor Sequence 4.0,,2025.1.1,59.74875647179773,2025-10-03 17h37.20.456352 +0530,
-50,x,88,0,22,x,1,0.45611429982818663,None,22,0,88,0,,,,,218.9336467999965,,,,,218.9179297001101,218.9336467999965,219.9179031001404,219.9179031001404,219.9179031001404,219.9179031001404,219.93423680006526,220.91741180000827,220.91741180000827,221.38350660004653,x,1,0.45611429982818663,None,,,,,,,,,3,001,2025-10-03_17h37.08.850,Motor Sequence 4.0,,2025.1.1,59.74875647179773,2025-10-03 17h37.20.456352 +0530,
150,v,89,1,22,v,1,0.5217083001043648,None,22,1,89,1,,,,,221.40009290003218,,,,,221.38383519998752,221.40009290003218,222.38317380007356,222.38317380007356,222.38317380007356,222.38317380007356,222.39926730003208,223.383056800114,223.383056800114,223.91614560014568,v,1,0.5217083001043648,None,,,,,,,,,3,001,2025-10-03_17h37.08.850,Motor Sequence 4.0,,2025.1.1,59.74875647179773,2025-10-03 17h37.20.456352 +0530,
50,c,90,2,22,c,1,0.5355961001478136,None,22,2,90,2,,,,,223.93203750019893,,,,,223.9164413001854,223.93203750019893,224.9155133999884,224.9155133999884,224.9155133999884,224.9155133999884,224.93162619997747,225.91606359998696,225.91606359998696,226.46698980010115,c,1,0.5355961001478136,None,,,,,,,,,3,001,2025-10-03_17h37.08.850,Motor Sequence 4.0,,2025.1.1,59.74875647179773,2025-10-03 17h37.20.456352 +0530,
-150,z,91,3,22,z,1,0.3409975999966264,None,22,3,91,3,,,,,226.4831616000738,,,,,226.4674608001951,226.4831616000738,227.48222620016895,227.48222620016895,227.48222620016895,227.48222620016895,227.49909930001013,228.48168279998936,228.48168279998936,228.83211740013212,z,1,0.3409975999966264,None,,,,,,,,,3,001,2025-10-03_17h37.08.850,Motor Sequence 4.0,,2025.1.1,59.74875647179773,2025-10-03 17h37.20.456352 +0530,
-50,x,92,0,23,x,1,0.447086300002411,None,23,0,92,0,,,,,228.84832920017652,,,,,228.8323456000071,228.84832920017652,229.83170630014502,229.83170630014502,229.83170630014502,229.83170630014502,229.84828920010477,230.8317286001984,230.8317286001984,231.28190060006455,x,1,0.447086300002411,None,,,,,,,,,3,001,2025-10-03_17h37.08.850,Motor Sequence 4.0,,2025.1.1,59.74875647179773,2025-10-03 17h37.20.456352 +0530,
150,v,93,1,23,v,1,0.4220408000983298,None,23,1,93,1,,,,,231.2981692000758,,,,,231.28212049999274,231.2981692000758,232.28167270007543,232.28167270007543,232.28167270007543,232.28167270007543,232.2979040001519,233.29790360014886,233.29790360014886,233.73149690008722,v,1,0.4220408000983298,None,,,,,,,,,3,001,2025-10-03_17h37.08.850,Motor Sequence 4.0,,2025.1.1,59.74875647179773,2025-10-03 17h37.20.456352 +0530,
50,c,94,2,23,c,1,0.4504086000379175,None,23,2,94,2,,,,,233.74776690010913,,,,,233.73174080019817,233.74776690010913,234.7306996001862,234.7306996001862,234.7306996001862,234.7306996001862,234.74751630006358,235.73082330008037,235.73082330008037,236.1977632001508,c,1,0.4504086000379175,None,,,,,,,,,3,001,2025-10-03_17h37.08.850,Motor Sequence 4.0,,2025.1.1,59.74875647179773,2025-10-03 17h37.20.456352 +0530,
-150,z,95,3,23,z,1,0.7352652000263333,None,23,3,95,3,,,,,236.21432230016217,,,,,236.19811340002343,236.21432230016217,237.19784949999303,237.19784949999303,237.19784949999303,237.19784949999303,237.21425550011918,238.19753200002015,238.19753200002015,238.9476342999842,z,1,0.7352652000263333,None,,,,,,,,,3,001,2025-10-03_17h37.08.850,Motor Sequence 4.0,,2025.1.1,59.74875647179773,2025-10-03 17h37.20.456352 +0530,
-50,x,96,0,24,x,1,0.3867257998790592,None,24,0,96,0,,,,,238.96374400006607,,,,,238.9479427000042,238.96374400006607,239.94709380017594,239.94709380017594,239.94709380017594,239.94709380017594,239.9640040001832,240.9472571001388,240.9472571001388,241.34689450007863,x,1,0.3867257998790592,None,,,,,,,,,3,001,2025-10-03_17h37.08.850,Motor Sequence 4.0,,2025.1.1,59.74875647179773,2025-10-03 17h37.20.456352 +0530,
150,v,97,1,24,v,1,0.4991365000605583,None,24,1,97,1,,,,,241.36359470011666,,,,,241.34711430012248,241.36359470011666,242.34652840020135,242.34652840020135,242.34652840020135,242.34652840020135,242.36293840012513,243.34660749998875,243.34660749998875,243.84757990017533,v,1,0.4991365000605583,None,,,,,,,,,3,001,2025-10-03_17h37.08.850,Motor Sequence 4.0,,2025.1.1,59.74875647179773,2025-10-03 17h37.20.456352 +0530,
50,c,98,2,24,c,1,0.6431625001132488,None,24,2,98,2,,,,,243.86273750010878,,,,,243.8478322001174,243.86273750010878,244.86285710008815,244.86285710008815,244.86285710008815,244.86285710008815,244.86285710008815,245.86331480019726,245.86331480019726,246.5128268999979,c,1,0.6431625001132488,None,,,,,,,,,3,001,2025-10-03_17h37.08.850,Motor Sequence 4.0,,2025.1.1,59.74875647179773,2025-10-03 17h37.20.456352 +0530,
-150,z,99,3,24,z,1,0.46604040008969605,None,24,3,99,3,,,,,246.5291202000808,,,,,246.51310950005427,246.5291202000808,247.51213639997877,247.51213639997877,247.51213639997877,247.51213639997877,247.5290860000532,248.5123058001045,248.5123058001045,248.98052920005284,z,1,0.46604040008969605,None,,,,,,,,,3,001,2025-10-03_17h37.08.850,Motor Sequence 4.0,,2025.1.1,59.74875647179773,2025-10-03 17h37.20.456352 +0530,
150,v,0,0,0,v,1,0.5635204999707639,None,,,,,0,0,0,1,248.99600600008853,,,,,248.98485970008187,248.99600600008853,249.99589390004985,249.99589390004985,249.99589390004985,249.99589390004985,249.99589390004985,250.99554620007984,250.99554620007984,251.56250860006548,,,,,v,1,0.5635204999707639,None,,,,,3,001,2025-10-03_17h37.08.850,Motor Sequence 4.0,,2025.1.1,59.74875647179773,2025-10-03 17h37.20.456352 +0530,
-150,z,1,1,0,z,1,0.5390591998584569,None,,,,,0,1,1,3,251.5787118000444,,,,,251.56280199997127,251.5787118000444,252.56188699998893,252.56188699998893,252.56188699998893,252.56188699998893,252.57853600010276,253.562353100162,253.562353100162,254.11368319997564,,,,,z,1,0.5390591998584569,None,,,,,3,001,2025-10-03_17h37.08.850,Motor Sequence 4.0,,2025.1.1,59.74875647179773,2025-10-03 17h37.20.456352 +0530,
-150,z,2,2,1,z,1,0.5130560998804867,None,,,,,1,2,2,3,254.12998940004036,,,,,254.11416290001944,254.12998940004036,255.12906579999253,255.12906579999253,255.12906579999253,255.12906579999253,255.14570890017785,256.1286799001973,256.1286799001973,256.64538060012273,,,,,z,1,0.5130560998804867,None,,,,,3,001,2025-10-03_17h37.08.850,Motor Sequence 4.0,,2025.1.1,59.74875647179773,2025-10-03 17h37.20.456352 +0530,
-50,x,3,3,0,x,1,0.5577098000794649,None,,,,,0,3,3,0,256.6616167000029,,,,,256.6456357999705,256.6616167000029,257.6460576001555,257.6460576001555,257.6460576001555,257.6460576001555,257.66209680004977,258.6454932000488,258.6454932000488,259.21221090015024,,,,,x,1,0.5577098000794649,None,,,,,3,001,2025-10-03_17h37.08.850,Motor Sequence 4.0,,2025.1.1,59.74875647179773,2025-10-03 17h37.20.456352 +0530,
-50,x,4,4,1,x,1,0.4526775998529047,None,,,,,1,4,4,0,259.22817400004715,,,,,259.21270350017585,259.22817400004715,260.22758100018837,260.22758100018837,260.22758100018837,260.22758100018837,260.22758100018837,261.211736000143,261.211736000143,261.6789369001053,,,,,x,1,0.4526775998529047,None,,,,,3,001,2025-10-03_17h37.08.850,Motor Sequence 4.0,,2025.1.1,59.74875647179773,2025-10-03 17h37.20.456352 +0530,
50,c,5,5,0,c,1,1.8977516000159085,None,,,,,0,5,5,2,261.69509250018746,,,,,261.67944049998187,261.69509250018746,262.67836660007015,262.67836660007015,262.67836660007015,262.67836660007015,262.6950165000744,263.69361330009997,263.69361330009997,265.5944376999978,,,,,c,1,1.8977516000159085,None,,,,,3,001,2025-10-03_17h37.08.850,Motor Sequence 4.0,,2025.1.1,59.74875647179773,2025-10-03 17h37.20.456352 +0530,
-150,z,6,6,2,z,1,0.7676999000832438,None,,,,,2,6,6,3,265.61035159998573,,,,,265.5946923000738,265.61035159998573,266.5933960999828,266.5933960999828,266.5933960999828,266.5933960999828,266.6102332000155,267.6101308001671,267.6101308001671,268.3935944000259,,,,,z,1,0.7676999000832438,None,,,,,3,001,2025-10-03_17h37.08.850,Motor Sequence 4.0,,2025.1.1,59.74875647179773,2025-10-03 17h37.20.456352 +0530,
50,c,7,7,1,c,1,0.7613177997991443,None,,,,,1,7,7,2,268.41057549999095,,,,,268.39388180011883,268.41057549999095,269.3932017001789,269.3932017001789,269.3932017001789,269.3932017001789,269.41034710011445,270.39286929997616,270.39286929997616,271.1600041000638,,,,,c,1,0.7613177997991443,None,,,,,3,001,2025-10-03_17h37.08.850,Motor Sequence 4.0,,2025.1.1,59.74875647179773,2025-10-03 17h37.20.456352 +0530,
150,v,8,8,1,v,1,1.2163417998235673,None,,,,,1,8,8,1,271.1763387999963,,,,,271.1603606999852,271.1763387999963,272.15932640014216,272.15932640014216,272.15932640014216,272.15932640014216,272.17584090004675,273.1597531000152,273.1597531000152,274.37746610003524,,,,,v,1,1.2163417998235673,None,,,,,3,001,2025-10-03_17h37.08.850,Motor Sequence 4.0,,2025.1.1,59.74875647179773,2025-10-03 17h37.20.456352 +0530,
-50,x,9,9,2,x,1,0.596628500148654,None,,,,,2,9,9,0,274.3925300000701,,,,,274.3777262000367,274.3925300000701,275.3924366000574,275.3924366000574,275.3924366000574,275.3924366000574,275.3924366000574,276.3766326000914,276.3766326000914,276.9771418001037,,,,,x,1,0.596628500148654,None,,,,,3,001,2025-10-03_17h37.08.850,Motor Sequence 4.0,,2025.1.1,59.74875647179773,2025-10-03 17h37.20.456352 +0530,
-150,z,10,10,3,z,1,0.7478396999649704,None,,,,,3,10,10,3,276.9930269001052,,,,,276.97768890019506,276.9930269001052,277.97668760013767,277.97668760013767,277.97668760013767,277.97668760013767,277.99334160005674,278.9759457001928,278.9759457001928,279.7265869001858,,,,,z,1,0.7478396999649704,None,,,,,3,001,2025-10-03_17h37.08.850,Motor Sequence 4.0,,2025.1.1,59.74875647179773,2025-10-03 17h37.20.456352 +0530,
-50,x,11,11,3,x,1,1.664692800026387,None,,,,,3,11,11,0,279.74293750012293,,,,,279.72710470017046,279.74293750012293,280.72618130012415,280.72618130012415,280.72618130012415,280.72618130012415,280.7430726001039,281.72614540020004,281.72614540020004,283.39317110017873,,,,,x,1,1.664692800026387,None,,,,,3,001,2025-10-03_17h37.08.850,Motor Sequence 4.0,,2025.1.1,59.74875647179773,2025-10-03 17h37.20.456352 +0530,
-150,z,12,12,4,z,1,1.4797394999768585,None,,,,,4,12,12,3,283.409093900118,,,,,283.3936905001756,283.409093900118,284.39246080000885,284.39246080000885,284.39246080000885,284.39246080000885,284.4091241999995,285.39250740013085,285.39250740013085,286.8755897001829,,,,,z,1,1.4797394999768585,None,,,,,3,001,2025-10-03_17h37.08.850,Motor Sequence 4.0,,2025.1.1,59.74875647179773,2025-10-03 17h37.20.456352 +0530,
150,v,13,13,2,v,1,0.9682825999334455,None,,,,,2,13,13,1,286.8915029000491,,,,,286.87607640004717,286.8915029000491,287.87530130008236,287.87530130008236,287.87530130008236,287.87530130008236,287.89152010018006,288.8754865000956,288.8754865000956,289.85887090000324,,,,,v,1,0.9682825999334455,None,,,,,3,001,2025-10-03_17h37.08.850,Motor Sequence 4.0,,2025.1.1,59.74875647179773,2025-10-03 17h37.20.456352 +0530,
150,v,14,14,3,v,1,0.6616268998477608,None,,,,,3,14,14,1,289.8747509000823,,,,,289.859377700137,289.8747509000823,290.8581944000907,290.8581944000907,290.8581944000907,290.8581944000907,290.875234400155,291.8582478000317,291.8582478000317,292.52441020007245,,,,,v,1,0.6616268998477608,None,,,,,3,001,2025-10-03_17h37.08.850,Motor Sequence 4.0,,2025.1.1,59.74875647179773,2025-10-03 17h37.20.456352 +0530,
50,c,15,15,2,c,1,0.43170599988661706,None,,,,,2,15,15,2,292.54111960018054,,,,,292.5246395000722,292.54111960018054,293.5249286000617,293.5249286000617,293.5249286000617,293.5249286000617,293.5413968001958,294.52457120013423,294.52457120013423,294.9589623999782,,,,,c,1,0.43170599988661706,None,,,,,3,001,2025-10-03_17h37.08.850,Motor Sequence 4.0,,2025.1.1,59.74875647179773,2025-10-03 17h37.20.456352 +0530,
-150,z,16,16,5,z,1,0.4478815000038594,None,,,,,5,16,16,3,294.97483080020174,,,,,294.9594315001741,294.97483080020174,295.97469520010054,295.97469520010054,295.97469520010054,295.97469520010054,295.97469520010054,296.9746281001717,296.9746281001717,297.4247886000667,,,,,z,1,0.4478815000038594,None,,,,,3,001,2025-10-03_17h37.08.850,Motor Sequence 4.0,,2025.1.1,59.74875647179773,2025-10-03 17h37.20.456352 +0530,
150,v,17,17,4,v,1,0.7653562000487,None,,,,,4,17,17,1,297.4413185999729,,,,,297.4252822000999,297.4413185999729,298.4245531000197,298.4245531000197,298.4245531000197,298.4245531000197,298.4412161000073,299.42380079999566,299.42380079999566,300.19157220004126,,,,,v,1,0.7653562000487,None,,,,,3,001,2025-10-03_17h37.08.850,Motor Sequence 4.0,,2025.1.1,59.74875647179773,2025-10-03 17h37.20.456352 +0530,
-150,z,18,18,6,z,1,0.525158500066027,None,,,,,6,18,18,3,300.20738560007885,,,,,300.1918963000644,300.20738560007885,301.19119599997066,301.19119599997066,301.19119599997066,301.19119599997066,301.20737610012293,302.1905828001909,302.1905828001909,302.7246878000442,,,,,z,1,0.525158500066027,None,,,,,3,001,2025-10-03_17h37.08.850,Motor Sequence 4.0,,2025.1.1,59.74875647179773,2025-10-03 17h37.20.456352 +0530,
-50,x,19,19,4,x,1,0.4916449999436736,None,,,,,4,19,19,0,302.7406023000367,,,,,302.7251899000257,302.7406023000367,303.74031140003353,303.74031140003353,303.74031140003353,303.74031140003353,303.74031140003353,304.74031240004115,304.74031240004115,305.24044800014235,,,,,x,1,0.4916449999436736,None,,,,,3,001,2025-10-03_17h37.08.850,Motor Sequence 4.0,,2025.1.1,59.74875647179773,2025-10-03 17h37.20.456352 +0530,
50,c,20,20,3,c,1,0.6516565999481827,None,,,,,3,20,20,2,305.2564527001232,,,,,305.2408704000991,305.2564527001232,306.2399959000759,306.2399959000759,306.2399959000759,306.2399959000759,306.2564447000623,307.2556233999785,307.2556233999785,307.9222044001799,,,,,c,1,0.6516565999481827,None,,,,,3,001,2025-10-03_17h37.08.850,Motor Sequence 4.0,,2025.1.1,59.74875647179773,2025-10-03 17h37.20.456352 +0530,
50,c,21,21,4,c,1,0.615633999928832,None,,,,,4,21,21,2,307.9387727000285,,,,,307.9224738001358,307.9387727000285,308.92233290011063,308.92233290011063,308.92233290011063,308.92233290011063,308.9388852000702,309.9230188000947,309.9230188000947,310.53978110011667,,,,,c,1,0.615633999928832,None,,,,,3,001,2025-10-03_17h37.08.850,Motor Sequence 4.0,,2025.1.1,59.74875647179773,2025-10-03 17h37.20.456352 +0530,
150,v,22,22,5,v,1,0.5116812000051141,None,,,,,5,22,22,1,310.5559910000302,,,,,310.54027270013466,310.5559910000302,311.55527030001394,311.55527030001394,311.55527030001394,311.55527030001394,311.55527030001394,312.5549980001524,312.5549980001524,313.072664400097,,,,,v,1,0.5116812000051141,None,,,,,3,001,2025-10-03_17h37.08.850,Motor Sequence 4.0,,2025.1.1,59.74875647179773,2025-10-03 17h37.20.456352 +0530,
-150,z,23,23,7,z,1,0.48809280013665557,None,,,,,7,23,23,3,313.08883180003613,,,,,313.0731632001698,313.08883180003613,314.07186840008944,314.07186840008944,314.07186840008944,314.07186840008944,314.0886239001993,315.0880559000652,315.0880559000652,315.5889116001781,,,,,z,1,0.48809280013665557,None,,,,,3,001,2025-10-03_17h37.08.850,Motor Sequence 4.0,,2025.1.1,59.74875647179773,2025-10-03 17h37.20.456352 +0530,
150,v,24,24,6,v,1,0.5925713998731226,None,,,,,6,24,24,1,315.6043239000719,,,,,315.5894150000531,315.6043239000719,316.58802720019594,316.58802720019594,316.58802720019594,316.58802720019594,316.60498250019737,317.60480970004573,317.60480970004573,318.2055884001311,,,,,v,1,0.5925713998731226,None,,,,,3,001,2025-10-03_17h37.08.850,Motor Sequence 4.0,,2025.1.1,59.74875647179773,2025-10-03 17h37.20.456352 +0530,
-50,x,25,25,5,x,1,0.5335888999979943,None,,,,,5,25,25,0,318.22117440006696,,,,,318.20608879998326,318.22117440006696,319.22062310017645,319.22062310017645,319.22062310017645,319.22062310017645,319.22062310017645,320.2200555000454,320.2200555000454,320.7703706000466,,,,,x,1,0.5335888999979943,None,,,,,3,001,2025-10-03_17h37.08.850,Motor Sequence 4.0,,2025.1.1,59.74875647179773,2025-10-03 17h37.20.456352 +0530,
50,c,26,26,5,c,1,0.7753604000899941,None,,,,,5,26,26,2,320.7871601001825,,,,,320.77064500004053,320.7871601001825,321.76950610009953,321.76950610009953,321.76950610009953,321.76950610009953,321.78643710003234,322.76982869999483,322.76982869999483,323.55434969998896,,,,,c,1,0.7753604000899941,None,,,,,3,001,2025-10-03_17h37.08.850,Motor Sequence 4.0,,2025.1.1,59.74875647179773,2025-10-03 17h37.20.456352 +0530,
-150,z,27,27,8,z,1,0.877370199887082,None,,,,,8,27,27,3,323.5705123001244,,,,,323.55488970014267,323.5705123001244,324.5697529001627,324.5697529001627,324.5697529001627,324.5697529001627,324.58617210015655,325.5542448000051,325.5542448000051,326.43813460017554,,,,,z,1,0.877370199887082,None,,,,,3,001,2025-10-03_17h37.08.850,Motor Sequence 4.0,,2025.1.1,59.74875647179773,2025-10-03 17h37.20.456352 +0530,
150,v,28,28,7,v,1,0.9907298001926392,None,,,,,7,28,28,1,326.45399010018446,,,,,326.43863540003076,326.45399010018446,327.453148300061,327.453148300061,327.453148300061,327.453148300061,327.453148300061,328.45338409999385,328.45338409999385,329.45452310005203,,,,,v,1,0.9907298001926392,None,,,,,3,001,2025-10-03_17h37.08.850,Motor Sequence 4.0,,2025.1.1,59.74875647179773,2025-10-03 17h37.20.456352 +0530,
-150,z,29,29,9,z,1,0.8246657000854611,None,,,,,9,29,29,3,329.4697753000073,,,,,329.4550354999956,329.4697753000073,330.47008420014754,330.47008420014754,330.47008420014754,330.47008420014754,330.47008420014754,331.46984590007924,331.46984590007924,332.3038175001275,,,,,z,1,0.8246657000854611,None,,,,,3,001,2025-10-03_17h37.08.850,Motor Sequence 4.0,,2025.1.1,59.74875647179773,2025-10-03 17h37.20.456352 +0530,
-150,z,30,30,10,z,1,0.5871620001271367,None,,,,,10,30,30,3,332.31992540019564,,,,,332.30428889999166,332.31992540019564,333.30254509998485,333.30254509998485,333.30254509998485,333.30254509998485,333.3198856001254,334.3031405999791,334.3031405999791,334.903268000111,,,,,z,1,0.5871620001271367,None,,,,,3,001,2025-10-03_17h37.08.850,Motor Sequence 4.0,,2025.1.1,59.74875647179773,2025-10-03 17h37.20.456352 +0530,
150,v,31,31,8,v,1,0.7488619000650942,None,,,,,8,31,31,1,334.91975980019197,,,,,334.90359280002303,334.91975980019197,335.90335190016776,335.90335190016776,335.90335190016776,335.90335190016776,335.919838800095,336.90278840018436,336.90278840018436,337.6533949000295,,,,,v,1,0.7488619000650942,None,,,,,3,001,2025-10-03_17h37.08.850,Motor Sequence 4.0,,2025.1.1,59.74875647179773,2025-10-03 17h37.20.456352 +0530,
150,v,32,32,9,v,1,0.5540944000240415,None,,,,,9,32,32,1,337.66915540001355,,,,,337.6538757001981,337.66915540001355,338.6693256001454,338.6693256001454,338.6693256001454,338.6693256001454,338.6693256001454,339.6690800001379,339.6690800001379,340.23655050015077,,,,,v,1,0.5540944000240415,None,,,,,3,001,2025-10-03_17h37.08.850,Motor Sequence 4.0,,2025.1.1,59.74875647179773,2025-10-03 17h37.20.456352 +0530,
-50,x,33,33,6,x,1,0.724647699855268,None,,,,,6,33,33,0,340.25269480003044,,,,,340.2370389001444,340.25269480003044,341.2522228001617,341.2522228001617,341.2522228001617,341.2522228001617,341.2522228001617,342.2354292999953,342.2354292999953,342.96911030006595,,,,,x,1,0.724647699855268,None,,,,,3,001,2025-10-03_17h37.08.850,Motor Sequence 4.0,,2025.1.1,59.74875647179773,2025-10-03 17h37.20.456352 +0530,
-50,x,34,34,7,x,1,0.5309495001565665,None,,,,,7,34,34,0,342.98495880002156,,,,,342.96963319997303,342.98495880002156,343.96876880014315,343.96876880014315,343.96876880014315,343.96876880014315,343.9854372001719,344.9845509000588,344.9845509000588,345.5192607000936,,,,,x,1,0.5309495001565665,None,,,,,3,001,2025-10-03_17h37.08.850,Motor Sequence 4.0,,2025.1.1,59.74875647179773,2025-10-03 17h37.20.456352 +0530,
-150,z,35,35,11,z,1,0.5187757001258433,None,,,,,11,35,35,3,345.53504820005037,,,,,345.5197991000023,345.53504820005037,346.51858470006846,346.51858470006846,346.51858470006846,346.51858470006846,346.53493440011516,347.5336743001826,347.5336743001826,348.0683788000606,,,,,z,1,0.5187757001258433,None,,,,,3,001,2025-10-03_17h37.08.850,Motor Sequence 4.0,,2025.1.1,59.74875647179773,2025-10-03 17h37.20.456352 +0530,
-50,x,36,36,8,x,1,0.5257031999062747,None,,,,,8,36,36,0,348.0839494999964,,,,,348.06898039998487,348.0839494999964,349.068094199989,349.068094199989,349.068094199989,349.068094199989,349.0846931000706,350.0676959999837,350.0676959999837,350.6007902000565,,,,,x,1,0.5257031999062747,None,,,,,3,001,2025-10-03_17h37.08.850,Motor Sequence 4.0,,2025.1.1,59.74875647179773,2025-10-03 17h37.20.456352 +0530,
150,v,37,37,10,v,1,0.6185371999163181,None,,,,,10,37,37,1,350.61681660008617,,,,,350.60119369998574,350.61681660008617,351.6172154999804,351.6172154999804,351.6172154999804,351.6172154999804,351.6172154999804,352.600509500131,352.600509500131,353.23470010003075,,,,,v,1,0.6185371999163181,None,,,,,3,001,2025-10-03_17h37.08.850,Motor Sequence 4.0,,2025.1.1,59.74875647179773,2025-10-03 17h37.20.456352 +0530,
-50,x,38,38,9,x,1,0.64961769990623,None,,,,,9,38,38,0,353.25052280002274,,,,,353.2351711001247,353.25052280002274,354.2509128001984,354.2509128001984,354.2509128001984,354.2509128001984,354.2509128001984,355.2505442001857,355.2505442001857,355.9005226001609,,,,,x,1,0.64961769990623,None,,,,,3,001,2025-10-03_17h37.08.850,Motor Sequence 4.0,,2025.1.1,59.74875647179773,2025-10-03 17h37.20.456352 +0530,
50,c,39,39,6,c,1,0.5509351000655442,None,,,,,6,39,39,2,355.91576690017246,,,,,355.9008326001931,355.91576690017246,356.9156224001199,356.9156224001199,356.9156224001199,356.9156224001199,356.9156224001199,357.90019030007534,357.90019030007534,358.46740239998326,,,,,c,1,0.5509351000655442,None,,,,,3,001,2025-10-03_17h37.08.850,Motor Sequence 4.0,,2025.1.1,59.74875647179773,2025-10-03 17h37.20.456352 +0530,
-150,z,40,40,12,z,1,0.46021110005676746,None,,,,,12,40,40,3,358.4834527000785,,,,,358.4678846001625,358.4834527000785,359.4826466999948,359.4826466999948,359.4826466999948,359.4826466999948,359.4991763001308,360.4827464001719,360.4827464001719,360.94836480007507,,,,,z,1,0.46021110005676746,None,,,,,3,001,2025-10-03_17h37.08.850,Motor Sequence 4.0,,2025.1.1,59.74875647179773,2025-10-03 17h37.20.456352 +0530,
-50,x,41,41,10,x,1,0.6800075001083314,None,,,,,10,41,41,0,360.96543009998277,,,,,360.94860110012814,360.96543009998277,361.9489800001029,361.9489800001029,361.9489800001029,361.9489800001029,361.9659167001955,362.94892110000364,362.94892110000364,363.63289730018005,,,,,x,1,0.6800075001083314,None,,,,,3,001,2025-10-03_17h37.08.850,Motor Sequence 4.0,,2025.1.1,59.74875647179773,2025-10-03 17h37.20.456352 +0530,
50,c,42,42,7,c,1,0.4828572999686003,None,,,,,7,42,42,2,363.64868060010485,,,,,363.6334140000399,363.64868060010485,364.64784650015645,364.64784650015645,364.64784650015645,364.64784650015645,364.64784650015645,365.6482202000916,365.6482202000916,366.133248800179,,,,,c,1,0.4828572999686003,None,,,,,3,001,2025-10-03_17h37.08.850,Motor Sequence 4.0,,2025.1.1,59.74875647179773,2025-10-03 17h37.20.456352 +0530,
-150,z,43,43,13,z,1,0.6097324001602829,None,,,,,13,43,43,3,366.1486290001776,,,,,366.13361600018106,366.1486290001776,367.1485309000127,367.1485309000127,367.1485309000127,367.1485309000127,367.1485309000127,368.1474689000752,368.1474689000752,368.7655389001593,,,,,z,1,0.6097324001602829,None,,,,,3,001,2025-10-03_17h37.08.850,Motor Sequence 4.0,,2025.1.1,59.74875647179773,2025-10-03 17h37.20.456352 +0530,
-150,z,44,44,14,z,1,1.1661926000379026,None,,,,,14,44,44,3,368.7816415000707,,,,,368.7660356000997,368.7816415000707,369.76548589998856,369.76548589998856,369.76548589998856,369.76548589998856,369.78202500008047,370.7815597001463,370.7815597001463,371.9491678001359,,,,,z,1,1.1661926000379026,None,,,,,3,001,2025-10-03_17h37.08.850,Motor Sequence 4.0,,2025.1.1,59.74875647179773,2025-10-03 17h37.20.456352 +0530,
50,c,45,45,8,c,1,0.5145199000835419,None,,,,,8,45,45,2,371.9649732999969,,,,,371.9496597000398,371.9649732999969,372.94840600015596,372.94840600015596,372.94840600015596,372.94840600015596,372.964991300134,373.96501730009913,373.96501730009913,374.48166649998166,,,,,c,1,0.5145199000835419,None,,,,,3,001,2025-10-03_17h37.08.850,Motor Sequence 4.0,,2025.1.1,59.74875647179773,2025-10-03 17h37.20.456352 +0530,
150,v,46,46,11,v,1,0.5709591000340879,None,,,,,11,46,46,1,374.4969991000835,,,,,374.4819345001597,374.4969991000835,375.4974839000497,375.4974839000497,375.4974839000497,375.4974839000497,375.4974839000497,376.48130330001004,376.48130330001004,377.0652048001066,,,,,v,1,0.5709591000340879,None,,,,,3,001,2025-10-03_17h37.08.850,Motor Sequence 4.0,,2025.1.1,59.74875647179773,2025-10-03 17h37.20.456352 +0530,
-50,x,47,47,11,x,1,0.48196400003507733,None,,,,,11,47,47,0,377.0806690000463,,,,,377.0656979000196,377.0806690000463,378.06441680015996,378.06441680015996,378.06441680015996,378.06441680015996,378.08095560013317,379.0802170999814,379.0802170999814,379.5647142000962,,,,,x,1,0.48196400003507733,None,,,,,3,001,2025-10-03_17h37.08.850,Motor Sequence 4.0,,2025.1.1,59.74875647179773,2025-10-03 17h37.20.456352 +0530,
-50,x,48,48,12,x,1,0.4989962999243289,None,,,,,12,48,48,0,379.57943440019153,,,,,379.5649341000244,379.57943440019153,380.56414180016145,380.56414180016145,380.56414180016145,380.56414180016145,380.5804006999824,381.58023820002563,381.58023820002563,382.0820088000037,,,,,x,1,0.4989962999243289,None,,,,,3,001,2025-10-03_17h37.08.850,Motor Sequence 4.0,,2025.1.1,59.74875647179773,2025-10-03 17h37.20.456352 +0530,
150,v,49,49,12,v,1,0.5223388001322746,None,,,,,12,49,49,1,382.0967306001112,,,,,382.08251520013437,382.0967306001112,383.09678370016627,383.09678370016627,383.09678370016627,383.09678370016627,383.09678370016627,384.09692040015943,384.09692040015943,384.63085620012134,,,,,v,1,0.5223388001322746,None,,,,,3,001,2025-10-03_17h37.08.850,Motor Sequence 4.0,,2025.1.1,59.74875647179773,2025-10-03 17h37.20.456352 +0530,
50,c,50,50,9,c,1,0.5189541999716312,None,,,,,9,50,50,2,384.6465889001265,,,,,384.6313481000252,384.6465889001265,385.6466652001254,385.6466652001254,385.6466652001254,385.6466652001254,385.6466652001254,386.6464617000893,386.6464617000893,387.1803878999781,,,,,c,1,0.5189541999716312,None,,,,,3,001,2025-10-03_17h37.08.850,Motor Sequence 4.0,,2025.1.1,59.74875647179773,2025-10-03 17h37.20.456352 +0530,
-150,z,51,51,15,z,1,0.467335999943316,None,,,,,15,51,51,3,387.19618250010535,,,,,387.180867300136,387.19618250010535,388.1798585001379,388.1798585001379,388.1798585001379,388.1798585001379,388.1962802000344,389.17921190010384,389.17921190010384,389.6633158000186,,,,,z,1,0.467335999943316,None,,,,,3,001,2025-10-03_17h37.08.850,Motor Sequence 4.0,,2025.1.1,59.74875647179773,2025-10-03 17h37.20.456352 +0530,
150,v,52,52,13,v,1,0.496284699998796,None,,,,,13,52,52,1,389.67969340016134,,,,,389.6638102000579,389.67969340016134,390.66259590000845,390.66259590000845,390.66259590000845,390.66259590000845,390.67949730018154,391.66257599997334,391.66257599997334,392.1630535000004,,,,,v,1,0.496284699998796,None,,,,,3,001,2025-10-03_17h37.08.850,Motor Sequence 4.0,,2025.1.1,59.74875647179773,2025-10-03 17h37.20.456352 +0530,
-150,z,53,53,16,z,1,0.38171430001966655,None,,,,,16,53,53,3,392.17907650000416,,,,,392.16354390000924,392.17907650000416,393.16242490010336,393.16242490010336,393.16242490010336,393.16242490010336,393.17926700017415,394.16240240004845,394.16240240004845,394.54599270015024,,,,,z,1,0.38171430001966655,None,,,,,3,001,2025-10-03_17h37.08.850,Motor Sequence 4.0,,2025.1.1,59.74875647179773,2025-10-03 17h37.20.456352 +0530,
150,v,54,54,14,v,1,0.7755360000301152,None,,,,,14,54,54,1,394.5620788000524,,,,,394.54646870004945,394.5620788000524,395.5448899001349,395.5448899001349,395.5448899001349,395.5448899001349,395.56192610017024,396.5454844001215,396.5454844001215,397.3293501001317,,,,,v,1,0.7755360000301152,None,,,,,3,001,2025-10-03_17h37.08.850,Motor Sequence 4.0,,2025.1.1,59.74875647179773,2025-10-03 17h37.20.456352 +0530,
-150,z,55,55,17,z,1,0.5795609999913722,None,,,,,17,55,55,3,397.3448980001267,,,,,397.32985650002956,397.3448980001267,398.34477780014277,398.34477780014277,398.34477780014277,398.34477780014277,398.34477780014277,399.32823250000365,399.32823250000365,399.91234680009075,,,,,z,1,0.5795609999913722,None,,,,,3,001,2025-10-03_17h37.08.850,Motor Sequence 4.0,,2025.1.1,59.74875647179773,2025-10-03 17h37.20.456352 +0530,
50,c,56,56,10,c,1,0.5763234000187367,None,,,,,10,56,56,2,399.92796150012873,,,,,399.9128131000325,399.92796150012873,400.9269533001352,400.9269533001352,400.9269533001352,400.9269533001352,400.9269533001352,401.9265777000692,401.9265777000692,402.51078860019334,,,,,c,1,0.5763234000187367,None,,,,,3,001,2025-10-03_17h37.08.850,Motor Sequence 4.0,,2025.1.1,59.74875647179773,2025-10-03 17h37.20.456352 +0530,
50,c,57,57,11,c,1,0.9726426000706851,None,,,,,11,57,57,2,402.5273450000677,,,,,402.5110867000185,402.5273450000677,403.51067130011506,403.51067130011506,403.51067130011506,403.51067130011506,403.5277886001859,404.5267374000978,404.5267374000978,405.5103023000993,,,,,c,1,0.9726426000706851,None,,,,,3,001,2025-10-03_17h37.08.850,Motor Sequence 4.0,,2025.1.1,59.74875647179773,2025-10-03 17h37.20.456352 +0530,
50,c,58,58,12,c,1,1.0412545001599938,None,,,,,12,58,58,2,405.52655300009064,,,,,405.5105351000093,405.52655300009064,406.50953370006755,406.50953370006755,406.50953370006755,406.50953370006755,406.526289800182,407.5257187001407,407.5257187001407,408.5769466001075,,,,,c,1,1.0412545001599938,None,,,,,3,001,2025-10-03_17h37.08.850,Motor Sequence 4.0,,2025.1.1,59.74875647179773,2025-10-03 17h37.20.456352 +0530,
-50,x,59,59,13,x,1,0.631743700010702,None,,,,,13,59,59,0,408.5930176000111,,,,,408.577447200194,408.5930176000111,409.5767858000472,409.5767858000472,409.5767858000472,409.5767858000472,409.5936493000481,410.57639790000394,410.57639790000394,411.21042330004275,,,,,x,1,0.631743700010702,None,,,,,3,001,2025-10-03_17h37.08.850,Motor Sequence 4.0,,2025.1.1,59.74875647179773,2025-10-03 17h37.20.456352 +0530,
150,v,60,60,15,v,1,0.7586672999896109,None,,,,,15,60,60,1,411.2263716000598,,,,,411.21071100002155,411.2263716000598,412.2258845001925,412.2258845001925,412.2258845001925,412.2258845001925,412.2258845001925,413.22487680008635,413.22487680008635,413.9919363001827,,,,,v,1,0.7586672999896109,None,,,,,3,001,2025-10-03_17h37.08.850,Motor Sequence 4.0,,2025.1.1,59.74875647179773,2025-10-03 17h37.20.456352 +0530,
-150,z,61,61,18,z,1,0.8183637999463826,None,,,,,18,61,61,3,414.00752370012924,,,,,413.9921769001521,414.00752370012924,414.99234170001,414.99234170001,414.99234170001,414.99234170001,415.0089682000689,415.9919652000535,415.9919652000535,416.8259422001429,,,,,z,1,0.8183637999463826,None,,,,,3,001,2025-10-03_17h37.08.850,Motor Sequence 4.0,,2025.1.1,59.74875647179773,2025-10-03 17h37.20.456352 +0530,
50,c,62,62,13,c,1,0.5565943999681622,None,,,,,13,62,62,2,416.84223140007816,,,,,416.8264687000774,416.84223140007816,417.8252369000111,417.8252369000111,417.8252369000111,417.8252369000111,417.84249330009334,418.82523620012216,418.82523620012216,419.3921577001456,,,,,c,1,0.5565943999681622,None,,,,,3,001,2025-10-03_17h37.08.850,Motor Sequence 4.0,,2025.1.1,59.74875647179773,2025-10-03 17h37.20.456352 +0530,
50,c,63,63,14,c,1,0.6608202999923378,None,,,,,14,63,63,2,419.40828470001,,,,,419.3926814000588,419.40828470001,420.39197440003045,420.39197440003045,420.39197440003045,420.39197440003045,420.4085022001527,421.39187940000556,421.39187940000556,422.05865060002543,,,,,c,1,0.6608202999923378,None,,,,,3,001,2025-10-03_17h37.08.850,Motor Sequence 4.0,,2025.1.1,59.74875647179773,2025-10-03 17h37.20.456352 +0530,
150,v,64,64,16,v,1,0.600649300031364,None,,,,,16,64,64,1,422.0751541000791,,,,,422.0591214001179,422.0751541000791,423.0753733001184,423.0753733001184,423.0753733001184,423.0753733001184,423.0753733001184,424.0584168001078,424.0584168001078,424.67580550001003,,,,,v,1,0.600649300031364,None,,,,,3,001,2025-10-03_17h37.08.850,Motor Sequence 4.0,,2025.1.1,59.74875647179773,2025-10-03 17h37.20.456352 +0530,
-50,x,65,65,14,x,1,1.146047400077805,None,,,,,14,65,65,0,424.69127010018565,,,,,424.6762914999854,424.69127010018565,425.6919812001288,425.6919812001288,425.6919812001288,425.6919812001288,425.6919812001288,426.67494780011475,426.67494780011475,427.82502880017273,,,,,x,1,1.146047400077805,None,,,,,3,001,2025-10-03_17h37.08.850,Motor Sequence 4.0,,2025.1.1,59.74875647179773,2025-10-03 17h37.20.456352 +0530,
-50,x,66,66,15,x,1,0.43760900013148785,None,,,,,15,66,66,0,427.84131420007907,,,,,427.8255239999853,427.84131420007907,428.8239339001011,428.8239339001011,428.8239339001011,428.8239339001011,428.840661900118,429.82444270001724,429.82444270001724,430.27516990015283,,,,,x,1,0.43760900013148785,None,,,,,3,001,2025-10-03_17h37.08.850,Motor Sequence 4.0,,2025.1.1,59.74875647179773,2025-10-03 17h37.20.456352 +0530,
50,c,67,67,15,c,1,0.4980520000681281,None,,,,,15,67,67,2,430.29126910003833,,,,,430.27565370011143,430.29126910003833,431.274045499973,431.274045499973,431.274045499973,431.274045499973,431.2911233000923,432.2906857000198,432.2906857000198,432.79136640019715,,,,,c,1,0.4980520000681281,None,,,,,3,001,2025-10-03_17h37.08.850,Motor Sequence 4.0,,2025.1.1,59.74875647179773,2025-10-03 17h37.20.456352 +0530,
50,c,68,68,16,c,1,0.6126434998586774,None,,,,,16,68,68,2,432.8070029001683,,,,,432.7918368000537,432.8070029001683,433.79044730006717,433.79044730006717,433.79044730006717,433.79044730006717,433.8069687001407,434.80722920014523,434.80722920014523,435.42421740014106,,,,,c,1,0.6126434998586774,None,,,,,3,001,2025-10-03_17h37.08.850,Motor Sequence 4.0,,2025.1.1,59.74875647179773,2025-10-03 17h37.20.456352 +0530,
50,c,69,69,17,c,1,0.4283070999663323,None,,,,,17,69,69,2,435.4393007000908,,,,,435.4246450001374,435.4393007000908,436.4235417000018,436.4235417000018,436.4235417000018,436.4235417000018,436.44015060015954,437.4228905001655,437.4228905001655,437.8576965001412,,,,,c,1,0.4283070999663323,None,,,,,3,001,2025-10-03_17h37.08.850,Motor Sequence 4.0,,2025.1.1,59.74875647179773,2025-10-03 17h37.20.456352 +0530,
50,c,70,70,18,c,1,0.5751275999937207,None,,,,,18,70,70,2,437.87347810016945,,,,,437.8582322001457,437.87347810016945,438.8732585001271,438.8732585001271,438.8732585001271,438.8732585001271,438.8732585001271,439.8731037999969,439.8731037999969,440.4571567000821,,,,,c,1,0.5751275999937207,None,,,,,3,001,2025-10-03_17h37.08.850,Motor Sequence 4.0,,2025.1.1,59.74875647179773,2025-10-03 17h37.20.456352 +0530,
50,c,71,71,19,c,1,0.8008901998400688,None,,,,,19,71,71,2,440.47295750002377,,,,,440.45764659997076,440.47295750002377,441.47279670019634,441.47279670019634,441.47279670019634,441.47279670019634,441.47279670019634,442.47291490016505,442.47291490016505,443.28998120012693,,,,,c,1,0.8008901998400688,None,,,,,3,001,2025-10-03_17h37.08.850,Motor Sequence 4.0,,2025.1.1,59.74875647179773,2025-10-03 17h37.20.456352 +0530,
-50,x,72,72,16,x,1,0.8390407001134008,None,,,,,16,72,72,0,443.30498630017973,,,,,443.2903579999693,443.30498630017973,444.3058339001145,444.3058339001145,444.3058339001145,444.3058339001145,444.3058339001145,445.2881617001258,445.2881617001258,446.13947020005435,,,,,x,1,0.8390407001134008,None,,,,,3,001,2025-10-03_17h37.08.850,Motor Sequence 4.0,,2025.1.1,59.74875647179773,2025-10-03 17h37.20.456352 +0530,
-150,z,73,73,19,z,1,0.9133443001192063,None,,,,,19,73,73,3,446.1555051000323,,,,,446.1399681000039,446.1555051000323,447.13895280007273,447.13895280007273,447.13895280007273,447.13895280007273,447.155234800186,448.13874340010807,448.13874340010807,449.0556815001182,,,,,z,1,0.9133443001192063,None,,,,,3,001,2025-10-03_17h37.08.850,Motor Sequence 4.0,,2025.1.1,59.74875647179773,2025-10-03 17h37.20.456352 +0530,
150,v,74,74,17,v,1,1.0846911000553519,None,,,,,17,74,74,1,449.0716460000258,,,,,449.0561762000434,449.0716460000258,450.07211910001934,450.07211910001934,450.07211910001934,450.07211910001934,450.07211910001934,451.0547448999714,451.0547448999714,452.15548000019044,,,,,v,1,1.0846911000553519,None,,,,,3,001,2025-10-03_17h37.08.850,Motor Sequence 4.0,,2025.1.1,59.74875647179773,2025-10-03 17h37.20.456352 +0530,
-50,x,75,75,17,x,1,0.6994801999535412,None,,,,,17,75,75,0,452.17077950015664,,,,,452.1559606001247,452.17077950015664,453.15472730016336,453.15472730016336,453.15472730016336,453.15472730016336,453.171401000116,454.17121290019713,454.17121290019713,454.8722420001868,,,,,x,1,0.6994801999535412,None,,,,,3,001,2025-10-03_17h37.08.850,Motor Sequence 4.0,,2025.1.1,59.74875647179773,2025-10-03 17h37.20.456352 +0530,
150,v,76,76,18,v,1,0.7599909999407828,None,,,,,18,76,76,1,454.8877141000703,,,,,454.87276010005735,454.8877141000703,455.88760660006665,455.88760660006665,455.88760660006665,455.88760660006665,455.88760660006665,456.88753830012865,456.88753830012865,457.6547525001224,,,,,v,1,0.7599909999407828,None,,,,,3,001,2025-10-03_17h37.08.850,Motor Sequence 4.0,,2025.1.1,59.74875647179773,2025-10-03 17h37.20.456352 +0530,
150,v,77,77,19,v,1,0.5283270000945777,None,,,,,19,77,77,1,457.6707604001276,,,,,457.6552299000323,457.6707604001276,458.6706984001212,458.6706984001212,458.6706984001212,458.6706984001212,458.6706984001212,459.6700836000964,459.6700836000964,460.2043610000983,,,,,v,1,0.5283270000945777,None,,,,,3,001,2025-10-03_17h37.08.850,Motor Sequence 4.0,,2025.1.1,59.74875647179773,2025-10-03 17h37.20.456352 +0530,
-50,x,78,78,18,x,1,0.5562211000360548,None,,,,,18,78,78,0,460.21998760011047,,,,,460.2048476000782,460.21998760011047,461.2037462000735,461.2037462000735,461.2037462000735,461.2037462000735,461.22039330005646,462.20363770006225,462.20363770006225,462.7708873001393,,,,,x,1,0.5562211000360548,None,,,,,3,001,2025-10-03_17h37.08.850,Motor Sequence 4.0,,2025.1.1,59.74875647179773,2025-10-03 17h37.20.456352 +0530,
-50,x,79,79,19,x,1,0.5342304999940097,None,,,,,19,79,79,0,462.7868010001257,,,,,462.7714050000068,462.7868010001257,463.7699856001418,463.7699856001418,463.7699856001418,463.7699856001418,463.7863580000121,464.7860197001137,464.7860197001137,465.3373416000977,,,,,x,1,0.5342304999940097,None,,,,,3,001,2025-10-03_17h37.08.850,Motor Sequence 4.0,,2025.1.1,59.74875647179773,2025-10-03 17h37.20.456352 +0530,
-150,z,80,80,20,z,1,0.5886228000745177,None,,,,,20,80,80,3,465.35335850017145,,,,,465.33786129998043,465.35335850017145,466.35343870008364,466.35343870008364,466.35343870008364,466.35343870008364,466.35343870008364,467.3528171000071,467.3528171000071,467.95374380005524,,,,,z,1,0.5886228000745177,None,,,,,3,001,2025-10-03_17h37.08.850,Motor Sequence 4.0,,2025.1.1,59.74875647179773,2025-10-03 17h37.20.456352 +0530,
-50,x,81,81,20,x,1,0.6986195000354201,None,,,,,20,81,81,0,467.9695731999818,,,,,467.95421600015834,467.9695731999818,468.96957780001685,468.96957780001685,468.96957780001685,468.96957780001685,468.96957780001685,469.96932950010523,469.96932950010523,470.6699859001674,,,,,x,1,0.6986195000354201,None,,,,,3,001,2025-10-03_17h37.08.850,Motor Sequence 4.0,,2025.1.1,59.74875647179773,2025-10-03 17h37.20.456352 +0530,
50,c,82,82,20,c,1,2.759461399866268,None,,,,,20,82,82,2,470.68613040004857,,,,,470.67050470015965,470.68613040004857,471.6694579999894,471.6694579999894,471.6694579999894,471.6694579999894,471.6852595000528,472.6854064001236,472.6854064001236,475.4527636000421,,,,,c,1,2.759461399866268,None,,,,,3,001,2025-10-03_17h37.08.850,Motor Sequence 4.0,,2025.1.1,59.74875647179773,2025-10-03 17h37.20.456352 +0530,
50,c,83,83,21,c,1,0.6243239000905305,None,,,,,21,83,83,2,475.4687320999801,,,,,475.4532493001316,475.4687320999801,476.4683545001317,476.4683545001317,476.4683545001317,476.4683545001317,476.4683545001317,477.4516553999856,477.4516553999856,478.0840732001234,,,,,c,1,0.6243239000905305,None,,,,,3,001,2025-10-03_17h37.08.850,Motor Sequence 4.0,,2025.1.1,59.74875647179773,2025-10-03 17h37.20.456352 +0530,
-50,x,84,84,21,x,1,0.548503499943763,None,,,,,21,84,84,0,478.1013140999712,,,,,478.08433920005336,478.1013140999712,479.08483110019006,479.08483110019006,479.08483110019006,479.08483110019006,479.10140460007824,480.0839909000788,480.0839909000788,480.6352446000092,,,,,x,1,0.548503499943763,None,,,,,3,001,2025-10-03_17h37.08.850,Motor Sequence 4.0,,2025.1.1,59.74875647179773,2025-10-03 17h37.20.456352 +0530,
-150,z,85,85,21,z,1,0.6344445000868291,None,,,,,21,85,85,3,480.6510535001289,,,,,480.6357566001825,480.6510535001289,481.6345379999839,481.6345379999839,481.6345379999839,481.6345379999839,481.6513914000243,482.6343149000313,482.6343149000313,483.28485630010255,,,,,z,1,0.6344445000868291,None,,,,,3,001,2025-10-03_17h37.08.850,Motor Sequence 4.0,,2025.1.1,59.74875647179773,2025-10-03 17h37.20.456352 +0530,
-150,z,86,86,22,z,1,0.5614814998116344,None,,,,,22,86,86,3,483.30052430019714,,,,,483.28538360004313,483.30052430019714,484.2839653000701,484.2839653000701,484.2839653000701,484.2839653000701,484.30047820019536,485.2842153001111,485.2842153001111,485.8509931000881,,,,,z,1,0.5614814998116344,None,,,,,3,001,2025-10-03_17h37.08.850,Motor Sequence 4.0,,2025.1.1,59.74875647179773,2025-10-03 17h37.20.456352 +0530,
50,c,87,87,22,c,1,0.7964511001482606,None,,,,,22,87,87,2,485.86729010008276,,,,,485.8514771000482,485.86729010008276,486.8504560000729,486.8504560000729,486.8504560000729,486.8504560000729,486.86698120017536,487.8499543000944,487.8499543000944,488.650673000142,,,,,c,1,0.7964511001482606,None,,,,,3,001,2025-10-03_17h37.08.850,Motor Sequence 4.0,,2025.1.1,59.74875647179773,2025-10-03 17h37.20.456352 +0530,
-50,x,88,88,22,x,1,0.42854960006661713,None,,,,,22,88,88,0,488.66668100003153,,,,,488.6511901000049,488.66668100003153,489.65028060018085,489.65028060018085,489.65028060018085,489.65028060018085,489.6670612001326,490.6499320999719,490.6499320999719,491.08360960008577,,,,,x,1,0.42854960006661713,None,,,,,3,001,2025-10-03_17h37.08.850,Motor Sequence 4.0,,2025.1.1,59.74875647179773,2025-10-03 17h37.20.456352 +0530,
150,v,89,89,20,v,1,0.5656063000205904,None,,,,,20,89,89,1,491.09965500002727,,,,,491.084122300148,491.09965500002727,492.08314360002987,492.08314360002987,492.08314360002987,492.08314360002987,492.0995166001376,493.0830331000034,493.0830331000034,493.65016210009344,,,,,v,1,0.5656063000205904,None,,,,,3,001,2025-10-03_17h37.08.850,Motor Sequence 4.0,,2025.1.1,59.74875647179773,2025-10-03 17h37.20.456352 +0530,
150,v,90,90,21,v,1,0.5890935000497848,None,,,,,21,90,90,1,493.6662894000765,,,,,493.65064540016465,493.6662894000765,494.6663727001287,494.6663727001287,494.6663727001287,494.6663727001287,494.6663727001287,495.66624140017666,495.66624140017666,496.26664200006053,,,,,v,1,0.5890935000497848,None,,,,,3,001,2025-10-03_17h37.08.850,Motor Sequence 4.0,,2025.1.1,59.74875647179773,2025-10-03 17h37.20.456352 +0530,
50,c,91,91,23,c,1,0.8749631000682712,None,,,,,23,91,91,2,496.2826648000628,,,,,496.2671301001683,496.2826648000628,497.2824407001026,497.2824407001026,497.2824407001026,497.2824407001026,497.2824407001026,498.282346600201,498.282346600201,499.1663016001694,,,,,c,1,0.8749631000682712,None,,,,,3,001,2025-10-03_17h37.08.850,Motor Sequence 4.0,,2025.1.1,59.74875647179773,2025-10-03 17h37.20.456352 +0530,
-50,x,92,92,23,x,1,0.8863790000323206,None,,,,,23,92,92,0,499.1818558999803,,,,,499.16678810003214,499.1818558999803,500.1656449001748,500.1656449001748,500.1656449001748,500.1656449001748,500.1822911000345,501.1814675000496,501.1814675000496,502.0823735999875,,,,,x,1,0.8863790000323206,None,,,,,3,001,2025-10-03_17h37.08.850,Motor Sequence 4.0,,2025.1.1,59.74875647179773,2025-10-03 17h37.20.456352 +0530,
-150,z,93,93,23,z,1,0.5730934999883175,None,,,,,23,93,93,3,502.09807629999705,,,,,502.08286500000395,502.09807629999705,503.08166610007174,503.08166610007174,503.08166610007174,503.08166610007174,503.09841860015877,504.08135530003347,504.08135530003347,504.6656467001885,,,,,z,1,0.5730934999883175,None,,,,,3,001,2025-10-03_17h37.08.850,Motor Sequence 4.0,,2025.1.1,59.74875647179773,2025-10-03 17h37.20.456352 +0530,
150,v,94,94,22,v,1,0.726437299977988,None,,,,,22,94,94,1,504.6815979999956,,,,,504.66613969998434,504.6815979999956,505.6645707001444,505.6645707001444,505.6645707001444,505.6645707001444,505.6819035001099,506.66451370017603,506.66451370017603,507.39856830006465,,,,,v,1,0.726437299977988,None,,,,,3,001,2025-10-03_17h37.08.850,Motor Sequence 4.0,,2025.1.1,59.74875647179773,2025-10-03 17h37.20.456352 +0530,
150,v,95,95,23,v,1,0.5177498999983072,None,,,,,23,95,95,1,507.4146279001143,,,,,507.39911060011946,507.4146279001143,508.4144481001422,508.4144481001422,508.4144481001422,508.4144481001422,508.4144481001422,509.4141702000052,509.4141702000052,509.9481960001867,,,,,v,1,0.5177498999983072,None,,,,,3,001,2025-10-03_17h37.08.850,Motor Sequence 4.0,,2025.1.1,59.74875647179773,2025-10-03 17h37.20.456352 +0530,
-50,x,96,96,24,x,1,0.48996390006504953,None,,,,,24,96,96,0,509.96329410001636,,,,,509.94872890016995,509.96329410001636,510.9474597000517,510.9474597000517,510.9474597000517,510.9474597000517,510.96362320007756,511.96309620002285,511.96309620002285,512.4645774001256,,,,,x,1,0.48996390006504953,None,,,,,3,001,2025-10-03_17h37.08.850,Motor Sequence 4.0,,2025.1.1,59.74875647179773,2025-10-03 17h37.20.456352 +0530,
50,c,97,97,24,c,1,0.635374499950558,None,,,,,24,97,97,2,512.4802838000469,,,,,512.4650067000184,512.4802838000469,513.4639781999867,513.4639781999867,513.4639781999867,513.4639781999867,513.480565899983,514.4637751001865,514.4637751001865,515.1142150000669,,,,,c,1,0.635374499950558,None,,,,,3,001,2025-10-03_17h37.08.850,Motor Sequence 4.0,,2025.1.1,59.74875647179773,2025-10-03 17h37.20.456352 +0530,
-150,z,98,98,24,z,1,0.5158633000683039,None,,,,,24,98,98,3,515.1301375001203,,,,,515.1146804001182,515.1301375001203,516.1295978999697,516.1295978999697,516.1295978999697,516.1295978999697,516.1295978999697,517.12980720005,517.12980720005,517.6631410000846,,,,,z,1,0.5158633000683039,None,,,,,3,001,2025-10-03_17h37.08.850,Motor Sequence 4.0,,2025.1.1,59.74875647179773,2025-10-03 17h37.20.456352 +0530,
150,v,99,99,24,v,1,0.6564120000693947,None,,,,,24,99,99,1,517.6789156000596,,,,,517.6636745000724,517.6789156000596,518.6614230000414,518.6614230000414,518.6614230000414,518.6614230000414,518.6782078000251,519.6624978000764,519.6624978000764,520.3295013001189,,,,,v,1,0.6564120000693947,None,,,,,3,001,2025-10-03_17h37.08.850,Motor Sequence 4.0,,2025.1.1,59.74875647179773,2025-10-03 17h37.20.456352 +0530,
,,,,,,,,,,,,,,,,,,,,,,,,,,,,,,,,,,,,,,,,520.3297008001246,520.3458556002006,525.3454885000829,525.3295738999732,3,001,2025-10-03_17h37.08.850,Motor Sequence 4.0,,2025.1.1,59.74875647179773,2025-10-03 17h37.20.456352 +0530,
