pos,corr_resp,thisN,thisTrialN,thisRepN,key_resp.keys,key_resp.corr,key_resp.rt,key_resp.duration,trials.thisRepN,trials.thisTrialN,trials.thisN,trials.thisIndex,trials_2.thisRepN,trials_2.thisTrialN,trials_2.thisN,trials_2.thisIndex,thisRow.t,notes,Welcome.started,text.started,Welcome.stopped,trial.started,Fixation.started,Line1.started,line2.started,line3.started,line4.started,Fixation.stopped,probe.started,key_resp.started,trial.stopped,trials.key_resp.keys,trials.key_resp.corr,trials.key_resp.rt,trials.key_resp.duration,trials_2.key_resp.keys,trials_2.key_resp.corr,trials_2.key_resp.rt,trials_2.key_resp.duration,Thank_You.started,text_2.started,text_2.stopped,Thank_You.stopped,participant,session,date,expName,expVersion,psychopyVersion,frameRate,expStart,
,,,,,,,,,,,,,,,,,,,0.0057079000398516655,0.022812000010162592,3.006359900115058,,,,,,,,,,,,,,,,,,,,,,,4,001,2025-10-03_18h01.36.587,Motor Sequence 4.0,,2025.1.1,59.865111934129715,2025-10-03 18h01.41.992890 +0530,
-50,x,0,0,0,x,1,0.7851078000385314,None,0,0,0,0,,,,,3.022707800148055,,,,,3.014260600088164,3.022707800148055,4.006031500175595,4.006031500175595,4.006031500175595,4.006031500175595,4.022457400104031,5.0065526000689715,5.0065526000689715,5.813648700015619,x,1,0.7851078000385314,None,,,,,,,,,4,001,2025-10-03_18h01.36.587,Motor Sequence 4.0,,2025.1.1,59.865111934129715,2025-10-03 18h01.41.992890 +0530,
150,v,1,1,0,v,1,0.563449100125581,None,0,1,1,1,,,,,5.82208520011045,,,,,5.814003000035882,5.82208520011045,6.823047900106758,6.823047900106758,6.823047900106758,6.823047900106758,6.823047900106758,7.822437300113961,7.822437300113961,8.389231400098652,v,1,0.563449100125581,None,,,,,,,,,4,001,2025-10-03_18h01.36.587,Motor Sequence 4.0,,2025.1.1,59.865111934129715,2025-10-03 18h01.41.992890 +0530,
50,c,2,2,0,c,1,0.35589749994687736,None,0,2,2,2,,,,,8.405605300096795,,,,,8.389594400068745,8.405605300096795,9.388681699987501,9.388681699987501,9.388681699987501,9.388681699987501,9.405594400130212,10.388791400007904,10.388791400007904,10.75487589999102,c,1,0.35589749994687736,None,,,,,,,,,4,001,2025-10-03_18h01.36.587,Motor Sequence 4.0,,2025.1.1,59.865111934129715,2025-10-03 18h01.41.992890 +0530,
-150,z,3,3,0,z,1,0.2803173998836428,None,0,3,3,3,,,,,10.77120770001784,,,,,10.755092000123113,10.77120770001784,11.754876400111243,11.754876400111243,11.754876400111243,11.754876400111243,11.772031400119886,12.755785500165075,12.755785500165075,13.040009000105783,z,1,0.2803173998836428,None,,,,,,,,,4,001,2025-10-03_18h01.36.587,Motor Sequence 4.0,,2025.1.1,59.865111934129715,2025-10-03 18h01.41.992890 +0530,
-50,x,4,0,1,x,1,0.32668100018054247,None,1,0,4,0,,,,,13.054886700119823,,,,,13.040489200036973,13.054886700119823,14.055881000123918,14.055881000123918,14.055881000123918,14.055881000123918,14.055881000123918,15.055579300038517,15.055579300038517,15.389366300078109,x,1,0.32668100018054247,None,,,,,,,,,4,001,2025-10-03_18h01.36.587,Motor Sequence 4.0,,2025.1.1,59.865111934129715,2025-10-03 18h01.41.992890 +0530,
150,v,5,1,1,v,1,0.252652799943462,None,1,1,5,1,,,,,15.404759200057015,,,,,15.38984560011886,15.404759200057015,16.404661600012332,16.404661600012332,16.404661600012332,16.404661600012332,16.404661600012332,17.40459410008043,17.40459410008043,17.672196000115946,v,1,0.252652799943462,None,,,,,,,,,4,001,2025-10-03_18h01.36.587,Motor Sequence 4.0,,2025.1.1,59.865111934129715,2025-10-03 18h01.41.992890 +0530,
50,c,6,2,1,c,1,0.29759790003299713,None,1,2,6,2,,,,,17.687305100029334,,,,,17.672699100105092,17.687305100029334,18.671078100102022,18.671078100102022,18.671078100102022,18.671078100102022,18.68728519999422,19.687056800117716,19.687056800117716,19.988106000004336,c,1,0.29759790003299713,None,,,,,,,,,4,001,2025-10-03_18h01.36.587,Motor Sequence 4.0,,2025.1.1,59.865111934129715,2025-10-03 18h01.41.992890 +0530,
-150,z,7,3,1,z,1,0.2623478998430073,None,1,3,7,3,,,,,20.004214599961415,,,,,19.98857849999331,20.004214599961415,21.003531200112775,21.003531200112775,21.003531200112775,21.003531200112775,21.003531200112775,21.987389200134203,21.987389200134203,22.254402999999,z,1,0.2623478998430073,None,,,,,,,,,4,001,2025-10-03_18h01.36.587,Motor Sequence 4.0,,2025.1.1,59.865111934129715,2025-10-03 18h01.41.992890 +0530,
-50,x,8,0,2,x,1,0.3577555001247674,None,2,0,8,0,,,,,22.27034020004794,,,,,22.25486440001987,22.27034020004794,23.254136000061408,23.254136000061408,23.254136000061408,23.254136000061408,23.27069539995864,24.253870300017297,24.253870300017297,24.621460700174794,x,1,0.3577555001247674,None,,,,,,,,,4,001,2025-10-03_18h01.36.587,Motor Sequence 4.0,,2025.1.1,59.865111934129715,2025-10-03 18h01.41.992890 +0530,
150,v,9,1,2,v,1,0.2763998999726027,None,2,1,9,1,,,,,24.636917400173843,,,,,24.621955800103024,24.636917400173843,25.62109210016206,25.62109210016206,25.62109210016206,25.62109210016206,25.637854899978265,26.621063500177115,26.621063500177115,26.904757000040263,v,1,0.2763998999726027,None,,,,,,,,,4,001,2025-10-03_18h01.36.587,Motor Sequence 4.0,,2025.1.1,59.865111934129715,2025-10-03 18h01.41.992890 +0530,
50,c,10,2,2,c,1,0.3081147000193596,None,2,2,10,2,,,,,26.920157700078562,,,,,26.905237700091675,26.920157700078562,27.904020100133494,27.904020100133494,27.904020100133494,27.904020100133494,27.920708999969065,28.920800300082192,28.920800300082192,29.238101500086486,c,1,0.3081147000193596,None,,,,,,,,,4,001,2025-10-03_18h01.36.587,Motor Sequence 4.0,,2025.1.1,59.865111934129715,2025-10-03 18h01.41.992890 +0530,
-150,z,11,3,2,z,1,0.13520350004546344,None,2,3,11,3,,,,,29.25326619995758,,,,,29.238625400001183,29.25326619995758,30.25370500003919,30.25370500003919,30.25370500003919,30.25370500003919,30.25370500003919,31.253724599955603,31.253724599955603,31.404187600128353,z,1,0.13520350004546344,None,,,,,,,,,4,001,2025-10-03_18h01.36.587,Motor Sequence 4.0,,2025.1.1,59.865111934129715,2025-10-03 18h01.41.992890 +0530,
-50,x,12,0,3,x,1,0.3423484000377357,None,3,0,12,0,,,,,31.419200000120327,,,,,31.40465770009905,31.419200000120327,32.40350080002099,32.40350080002099,32.40350080002099,32.40350080002099,32.42012520018034,33.40312390006147,33.40312390006147,33.75399460014887,x,1,0.3423484000377357,None,,,,,,,,,4,001,2025-10-03_18h01.36.587,Motor Sequence 4.0,,2025.1.1,59.865111934129715,2025-10-03 18h01.41.992890 +0530,
150,v,13,1,3,v,1,0.3127894999925047,None,3,1,13,1,,,,,33.76970189996064,,,,,33.754364100052044,33.76970189996064,34.77005140017718,34.77005140017718,34.77005140017718,34.77005140017718,34.77005140017718,35.770091800019145,35.770091800019145,36.08722270000726,v,1,0.3127894999925047,None,,,,,,,,,4,001,2025-10-03_18h01.36.587,Motor Sequence 4.0,,2025.1.1,59.865111934129715,2025-10-03 18h01.41.992890 +0530,
50,c,14,2,3,c,1,0.3197984998114407,None,3,2,14,2,,,,,36.102533400058746,,,,,36.08763430011459,36.102533400058746,37.08647680003196,37.08647680003196,37.08647680003196,37.08647680003196,37.1029912000522,38.10246399999596,38.10246399999596,38.43625989998691,c,1,0.3197984998114407,None,,,,,,,,,4,001,2025-10-03_18h01.36.587,Motor Sequence 4.0,,2025.1.1,59.865111934129715,2025-10-03 18h01.41.992890 +0530,
-150,z,15,3,3,z,1,0.2959789999295026,None,3,3,15,3,,,,,38.452223000116646,,,,,38.43675049999729,38.452223000116646,39.435962200164795,39.435962200164795,39.435962200164795,39.435962200164795,39.45269800000824,40.45279110013507,40.45279110013507,40.753343200078234,z,1,0.2959789999295026,None,,,,,,,,,4,001,2025-10-03_18h01.36.587,Motor Sequence 4.0,,2025.1.1,59.865111934129715,2025-10-03 18h01.41.992890 +0530,
-50,x,16,0,4,x,1,0.5913177998736501,None,4,0,16,0,,,,,40.76794319995679,,,,,40.7537953001447,40.76794319995679,41.76898990012705,41.76898990012705,41.76898990012705,41.76898990012705,41.76898990012705,42.76910310005769,42.76910310005769,43.369777200045064,x,1,0.5913177998736501,None,,,,,,,,,4,001,2025-10-03_18h01.36.587,Motor Sequence 4.0,,2025.1.1,59.865111934129715,2025-10-03 18h01.41.992890 +0530,
150,v,17,1,4,v,1,0.35009799990803003,None,4,1,17,1,,,,,43.384493000106886,,,,,43.37030609999783,43.384493000106886,44.385375400073826,44.385375400073826,44.385375400073826,44.385375400073826,44.385375400073826,45.38543050014414,45.38543050014414,45.751426900038496,v,1,0.35009799990803003,None,,,,,,,,,4,001,2025-10-03_18h01.36.587,Motor Sequence 4.0,,2025.1.1,59.865111934129715,2025-10-03 18h01.41.992890 +0530,
50,c,18,2,4,c,1,0.3159336999524385,None,4,2,18,2,,,,,45.768309799954295,,,,,45.751697400119156,45.768309799954295,46.750919700134546,46.750919700134546,46.750919700134546,46.750919700134546,46.7682485000696,47.75155459996313,47.75155459996313,48.06882240017876,c,1,0.3159336999524385,None,,,,,,,,,4,001,2025-10-03_18h01.36.587,Motor Sequence 4.0,,2025.1.1,59.865111934129715,2025-10-03 18h01.41.992890 +0530,
-150,z,19,3,4,z,1,0.2752815999556333,None,4,3,19,3,,,,,48.08414619998075,,,,,48.069315100088716,48.08414619998075,49.068487599957734,49.068487599957734,49.068487599957734,49.068487599957734,49.084678600076586,50.06805010000244,50.06805010000244,50.35201290016994,z,1,0.2752815999556333,None,,,,,,,,,4,001,2025-10-03_18h01.36.587,Motor Sequence 4.0,,2025.1.1,59.865111934129715,2025-10-03 18h01.41.992890 +0530,
-50,x,20,0,5,x,1,0.7625363999977708,None,5,0,20,0,,,,,50.367625599959865,,,,,50.35249950014986,50.367625599959865,51.368024199968204,51.368024199968204,51.368024199968204,51.368024199968204,51.368024199968204,52.351468099979684,52.351468099979684,53.11862360010855,x,1,0.7625363999977708,None,,,,,,,,,4,001,2025-10-03_18h01.36.587,Motor Sequence 4.0,,2025.1.1,59.865111934129715,2025-10-03 18h01.41.992890 +0530,
150,v,21,1,5,v,1,0.31576390005648136,None,5,1,21,1,,,,,53.1339465000201,,,,,53.119108699960634,53.1339465000201,54.134280200116336,54.134280200116336,54.134280200116336,54.134280200116336,54.134280200116336,55.134115300141275,55.134115300141275,55.45105560007505,v,1,0.31576390005648136,None,,,,,,,,,4,001,2025-10-03_18h01.36.587,Motor Sequence 4.0,,2025.1.1,59.865111934129715,2025-10-03 18h01.41.992890 +0530,
50,c,22,2,5,c,1,0.26518930005840957,None,5,2,22,2,,,,,55.46693430002779,,,,,55.45153940003365,55.46693430002779,56.46628340007737,56.46628340007737,56.46628340007737,56.46628340007737,56.46628340007737,57.46608419995755,57.46608419995755,57.732911500148475,c,1,0.26518930005840957,None,,,,,,,,,4,001,2025-10-03_18h01.36.587,Motor Sequence 4.0,,2025.1.1,59.865111934129715,2025-10-03 18h01.41.992890 +0530,
-150,z,23,3,5,z,1,0.4759524001274258,None,5,3,23,3,,,,,57.749173199990764,,,,,57.733163400087506,57.749173199990764,58.732326900120825,58.732326900120825,58.732326900120825,58.732326900120825,58.7486554000061,59.733305000001565,59.733305000001565,60.21717910002917,z,1,0.4759524001274258,None,,,,,,,,,4,001,2025-10-03_18h01.36.587,Motor Sequence 4.0,,2025.1.1,59.865111934129715,2025-10-03 18h01.41.992890 +0530,
-50,x,24,0,6,x,1,0.3667250999715179,None,6,0,24,0,,,,,60.23290119995363,,,,,60.2176352001261,60.23290119995363,61.21655120002106,61.21655120002106,61.21655120002106,61.21655120002106,61.23303100001067,62.21654870011844,62.21654870011844,62.59943930013105,x,1,0.3667250999715179,None,,,,,,,,,4,001,2025-10-03_18h01.36.587,Motor Sequence 4.0,,2025.1.1,59.865111934129715,2025-10-03 18h01.41.992890 +0530,
150,v,25,1,6,v,1,0.2802145001478493,None,6,1,25,1,,,,,62.615732700098306,,,,,62.59990709996782,62.615732700098306,63.599092200165614,63.599092200165614,63.599092200165614,63.599092200165614,63.6152375000529,64.599337000167,64.599337000167,64.88335230015218,v,1,0.2802145001478493,None,,,,,,,,,4,001,2025-10-03_18h01.36.587,Motor Sequence 4.0,,2025.1.1,59.865111934129715,2025-10-03 18h01.41.992890 +0530,
50,c,26,2,6,c,1,0.3070348999463022,None,6,2,26,2,,,,,64.89877860015258,,,,,64.88385169999674,64.89877860015258,65.89919080003165,65.89919080003165,65.89919080003165,65.89919080003165,65.89919080003165,66.89869659999385,66.89869659999385,67.21625990001485,c,1,0.3070348999463022,None,,,,,,,,,4,001,2025-10-03_18h01.36.587,Motor Sequence 4.0,,2025.1.1,59.865111934129715,2025-10-03 18h01.41.992890 +0530,
-150,z,27,3,6,z,1,0.26009510015137494,None,6,3,27,3,,,,,67.23174980003387,,,,,67.21676610014401,67.23174980003387,68.21536040003411,68.21536040003411,68.21536040003411,68.21536040003411,68.2318385001272,69.23228580015711,69.23228580015711,69.49937770003453,z,1,0.26009510015137494,None,,,,,,,,,4,001,2025-10-03_18h01.36.587,Motor Sequence 4.0,,2025.1.1,59.865111934129715,2025-10-03 18h01.41.992890 +0530,
-50,x,28,0,7,x,1,0.8258626000024378,None,7,0,28,0,,,,,69.51524350000545,,,,,69.49986040010117,69.51524350000545,70.49868750013411,70.49868750013411,70.49868750013411,70.49868750013411,70.51539389998652,71.49804950016551,71.49804950016551,72.33272529998794,x,1,0.8258626000024378,None,,,,,,,,,4,001,2025-10-03_18h01.36.587,Motor Sequence 4.0,,2025.1.1,59.865111934129715,2025-10-03 18h01.41.992890 +0530,
150,v,29,1,7,v,1,0.14670109981670976,None,7,1,29,1,,,,,72.34796270006336,,,,,72.33320890017785,72.34796270006336,73.3318603001535,73.3318603001535,73.3318603001535,73.3318603001535,73.34845479996875,74.34795080008917,74.34795080008917,74.49905560002662,v,1,0.14670109981670976,None,,,,,,,,,4,001,2025-10-03_18h01.36.587,Motor Sequence 4.0,,2025.1.1,59.865111934129715,2025-10-03 18h01.41.992890 +0530,
50,c,30,2,7,c,1,0.3007205999456346,None,7,2,30,2,,,,,74.51401170017198,,,,,74.49952740012668,74.51401170017198,75.51482080016285,75.51482080016285,75.51482080016285,75.51482080016285,75.51482080016285,76.51464230008423,76.51464230008423,76.83157399995252,c,1,0.3007205999456346,None,,,,,,,,,4,001,2025-10-03_18h01.36.587,Motor Sequence 4.0,,2025.1.1,59.865111934129715,2025-10-03 18h01.41.992890 +0530,
-150,z,31,3,7,z,1,0.2851110000628978,None,7,3,31,3,,,,,76.84770060004666,,,,,76.83208580012433,76.84770060004666,77.84671230008826,77.84671230008826,77.84671230008826,77.84671230008826,77.84671230008826,78.83118920004927,78.83118920004927,79.13125970005058,z,1,0.2851110000628978,None,,,,,,,,,4,001,2025-10-03_18h01.36.587,Motor Sequence 4.0,,2025.1.1,59.865111934129715,2025-10-03 18h01.41.992890 +0530,
-50,x,32,0,8,x,1,0.336637900210917,None,8,0,32,0,,,,,79.14759550010785,,,,,79.13172000017948,79.14759550010785,80.13117299997248,80.13117299997248,80.13117299997248,80.13117299997248,80.14729090011679,81.13083130004816,81.13083130004816,81.48031200002879,x,1,0.336637900210917,None,,,,,,,,,4,001,2025-10-03_18h01.36.587,Motor Sequence 4.0,,2025.1.1,59.865111934129715,2025-10-03 18h01.41.992890 +0530,
150,v,33,1,8,v,1,0.23275570012629032,None,8,1,33,1,,,,,81.49675519997254,,,,,81.48070780001581,81.49675519997254,82.480564000085,82.480564000085,82.480564000085,82.480564000085,82.49730950011872,83.49577819998376,83.49577819998376,83.73143679997884,v,1,0.23275570012629032,None,,,,,,,,,4,001,2025-10-03_18h01.36.587,Motor Sequence 4.0,,2025.1.1,59.865111934129715,2025-10-03 18h01.41.992890 +0530,
50,c,34,2,8,c,1,0.15350060001946986,None,8,2,34,2,,,,,83.74566020001657,,,,,83.73192370007746,83.74566020001657,84.74682949995622,84.74682949995622,84.74682949995622,84.74682949995622,84.74682949995622,85.74679660005495,85.74679660005495,85.9140884000808,c,1,0.15350060001946986,None,,,,,,,,,4,001,2025-10-03_18h01.36.587,Motor Sequence 4.0,,2025.1.1,59.865111934129715,2025-10-03 18h01.41.992890 +0530,
-150,z,35,3,8,z,1,0.22813710011541843,None,8,3,35,3,,,,,85.92997210007161,,,,,85.91455390001647,85.92997210007161,86.93014740012586,86.93014740012586,86.93014740012586,86.93014740012586,86.93014740012586,87.91311760013923,87.91311760013923,88.14684549998492,z,1,0.22813710011541843,None,,,,,,,,,4,001,2025-10-03_18h01.36.587,Motor Sequence 4.0,,2025.1.1,59.865111934129715,2025-10-03 18h01.41.992890 +0530,
-50,x,36,0,9,x,1,0.4049254998099059,None,9,0,36,0,,,,,88.16221199999563,,,,,88.14734140015207,88.16221199999563,89.1466257001739,89.1466257001739,89.1466257001739,89.1466257001739,89.16279270011,90.16258330014534,90.16258330014534,90.5803322000429,x,1,0.4049254998099059,None,,,,,,,,,4,001,2025-10-03_18h01.36.587,Motor Sequence 4.0,,2025.1.1,59.865111934129715,2025-10-03 18h01.41.992890 +0530,
150,v,37,1,9,v,1,0.29234189982526004,None,9,1,37,1,,,,,90.5952540000435,,,,,90.58081830013543,90.5952540000435,91.5794769001659,91.5794769001659,91.5794769001659,91.5794769001659,91.59600560017861,92.59573719999753,92.59573719999753,92.89638800011016,v,1,0.29234189982526004,None,,,,,,,,,4,001,2025-10-03_18h01.36.587,Motor Sequence 4.0,,2025.1.1,59.865111934129715,2025-10-03 18h01.41.992890 +0530,
50,c,38,2,9,c,1,0.237924600020051,None,9,2,38,2,,,,,92.91251990012825,,,,,92.89690849999897,92.91251990012825,93.89550300012343,93.89550300012343,93.89550300012343,93.89550300012343,93.91232590004802,94.89596820017323,94.89596820017323,95.14637099998072,c,1,0.237924600020051,None,,,,,,,,,4,001,2025-10-03_18h01.36.587,Motor Sequence 4.0,,2025.1.1,59.865111934129715,2025-10-03 18h01.41.992890 +0530,
-150,z,39,3,9,z,1,0.2653103000484407,None,9,3,39,3,,,,,95.16230640001595,,,,,95.14683650014922,95.16230640001595,96.16208419995382,96.16208419995382,96.16208419995382,96.16208419995382,96.16208419995382,97.16202550008893,97.16202550008893,97.42996510001831,z,1,0.2653103000484407,None,,,,,,,,,4,001,2025-10-03_18h01.36.587,Motor Sequence 4.0,,2025.1.1,59.865111934129715,2025-10-03 18h01.41.992890 +0530,
-50,x,40,0,10,x,1,0.24607829982414842,None,10,0,40,0,,,,,97.44485620013438,,,,,97.43045390001498,97.44485620013438,98.44552950002253,98.44552950002253,98.44552950002253,98.44552950002253,98.44552950002253,99.44534430000931,99.44534430000931,99.69585729995742,x,1,0.24607829982414842,None,,,,,,,,,4,001,2025-10-03_18h01.36.587,Motor Sequence 4.0,,2025.1.1,59.865111934129715,2025-10-03 18h01.41.992890 +0530,
150,v,41,1,10,v,1,0.09146660007536411,None,10,1,41,1,,,,,99.71118730003946,,,,,99.69633670011535,99.71118730003946,100.71153270010836,100.71153270010836,100.71153270010836,100.71153270010836,100.71153270010836,101.71013660007156,101.71013660007156,101.81057420000434,v,1,0.09146660007536411,None,,,,,,,,,4,001,2025-10-03_18h01.36.587,Motor Sequence 4.0,,2025.1.1,59.865111934129715,2025-10-03 18h01.41.992890 +0530,
50,c,42,2,10,c,1,0.6225777000654489,None,10,2,42,2,,,,,101.82652070000768,,,,,101.81082640006207,101.82652070000768,102.81068710004911,102.81068710004911,102.81068710004911,102.81068710004911,102.82770290016197,103.8116272999905,103.8116272999905,104.4451530999504,c,1,0.6225777000654489,None,,,,,,,,,4,001,2025-10-03_18h01.36.587,Motor Sequence 4.0,,2025.1.1,59.865111934129715,2025-10-03 18h01.41.992890 +0530,
-150,z,43,3,10,z,1,0.31543620000593364,None,10,3,43,3,,,,,104.45982150011696,,,,,104.44566520000808,104.45982150011696,105.4440987999551,105.4440987999551,105.4440987999551,105.4440987999551,105.46111230016686,106.44417190016247,106.44417190016247,106.76204350008629,z,1,0.31543620000593364,None,,,,,,,,,4,001,2025-10-03_18h01.36.587,Motor Sequence 4.0,,2025.1.1,59.865111934129715,2025-10-03 18h01.41.992890 +0530,
-50,x,44,0,11,x,1,0.3500246999319643,None,11,0,44,0,,,,,106.77665899996646,,,,,106.76254809997045,106.77665899996646,107.77721279999241,107.77721279999241,107.77721279999241,107.77721279999241,107.77721279999241,108.77627300005406,108.77627300005406,109.12789730005898,x,1,0.3500246999319643,None,,,,,,,,,4,001,2025-10-03_18h01.36.587,Motor Sequence 4.0,,2025.1.1,59.865111934129715,2025-10-03 18h01.41.992890 +0530,
150,v,45,1,11,v,1,0.27896300004795194,None,11,1,45,1,,,,,109.14296800014563,,,,,109.12837249995209,109.14296800014563,110.12712640012614,110.12712640012614,110.12712640012614,110.12712640012614,110.14370850007981,111.14358730008826,111.14358730008826,111.42689340002835,v,1,0.27896300004795194,None,,,,,,,,,4,001,2025-10-03_18h01.36.587,Motor Sequence 4.0,,2025.1.1,59.865111934129715,2025-10-03 18h01.41.992890 +0530,
50,c,46,2,11,c,1,0.29642949998378754,None,11,2,46,2,,,,,111.44307389995083,,,,,111.42738600005396,111.44307389995083,112.42707700002939,112.42707700002939,112.42707700002939,112.42707700002939,112.44374200003222,113.42671150015667,113.42671150015667,113.72769580013119,c,1,0.29642949998378754,None,,,,,,,,,4,001,2025-10-03_18h01.36.587,Motor Sequence 4.0,,2025.1.1,59.865111934129715,2025-10-03 18h01.41.992890 +0530,
-150,z,47,3,11,z,1,0.2970992000773549,None,11,3,47,3,,,,,113.74310309998691,,,,,113.72819270007312,113.74310309998691,114.74303180002607,114.74303180002607,114.74303180002607,114.74303180002607,114.74303180002607,115.7427928999532,115.7427928999532,116.04261360014789,z,1,0.2970992000773549,None,,,,,,,,,4,001,2025-10-03_18h01.36.587,Motor Sequence 4.0,,2025.1.1,59.865111934129715,2025-10-03 18h01.41.992890 +0530,
-50,x,48,0,12,x,1,0.3118070000782609,None,12,0,48,0,,,,,116.05843070009723,,,,,116.04291840014048,116.05843070009723,117.04288500011899,117.04288500011899,117.04288500011899,117.04288500011899,117.05965670011938,118.05779860005714,118.05779860005714,118.37500770017505,x,1,0.3118070000782609,None,,,,,,,,,4,001,2025-10-03_18h01.36.587,Motor Sequence 4.0,,2025.1.1,59.865111934129715,2025-10-03 18h01.41.992890 +0530,
150,v,49,1,12,v,1,0.38037790008820593,None,12,1,49,1,,,,,118.39139650017023,,,,,118.37524640001357,118.39139650017023,119.37607340002432,119.37607340002432,119.37607340002432,119.37607340002432,119.3924704999663,120.37576059997082,120.37576059997082,120.75943069998175,v,1,0.38037790008820593,None,,,,,,,,,4,001,2025-10-03_18h01.36.587,Motor Sequence 4.0,,2025.1.1,59.865111934129715,2025-10-03 18h01.41.992890 +0530,
50,c,50,2,12,c,1,0.2903040999080986,None,12,2,50,2,,,,,120.7743238999974,,,,,120.7599103001412,120.7743238999974,121.75888400012627,121.75888400012627,121.75888400012627,121.75888400012627,121.77565330010839,122.7587152000051,122.7587152000051,123.05981010012329,c,1,0.2903040999080986,None,,,,,,,,,4,001,2025-10-03_18h01.36.587,Motor Sequence 4.0,,2025.1.1,59.865111934129715,2025-10-03 18h01.41.992890 +0530,
-150,z,51,3,12,z,1,0.3944929998833686,None,12,3,51,3,,,,,123.07512419996783,,,,,123.06028249999508,123.07512419996783,124.0755370000843,124.0755370000843,124.0755370000843,124.0755370000843,124.0755370000843,125.07481070002541,125.07481070002541,125.47577170003206,z,1,0.3944929998833686,None,,,,,,,,,4,001,2025-10-03_18h01.36.587,Motor Sequence 4.0,,2025.1.1,59.865111934129715,2025-10-03 18h01.41.992890 +0530,
-50,x,52,0,13,x,1,0.25402909982949495,None,13,0,52,0,,,,,125.4911803000141,,,,,125.47626679996029,125.4911803000141,126.49167570006102,126.49167570006102,126.49167570006102,126.49167570006102,126.49167570006102,127.49135940009728,127.49135940009728,127.75848920014687,x,1,0.25402909982949495,None,,,,,,,,,4,001,2025-10-03_18h01.36.587,Motor Sequence 4.0,,2025.1.1,59.865111934129715,2025-10-03 18h01.41.992890 +0530,
150,v,53,1,13,v,1,0.40378980012610555,None,13,1,53,1,,,,,127.77467770013027,,,,,127.75902660004795,127.77467770013027,128.75800999999046,128.75800999999046,128.75800999999046,128.75800999999046,128.7746523001697,129.7577419001609,129.7577419001609,130.17503760010004,v,1,0.40378980012610555,None,,,,,,,,,4,001,2025-10-03_18h01.36.587,Motor Sequence 4.0,,2025.1.1,59.865111934129715,2025-10-03 18h01.41.992890 +0530,
50,c,54,2,13,c,1,0.3628851000685245,None,13,2,54,2,,,,,130.19090489996597,,,,,130.17550400015898,130.19090489996597,131.1912130001001,131.1912130001001,131.1912130001001,131.1912130001001,131.1912130001001,132.17437830008566,132.17437830008566,132.54152830014937,c,1,0.3628851000685245,None,,,,,,,,,4,001,2025-10-03_18h01.36.587,Motor Sequence 4.0,,2025.1.1,59.865111934129715,2025-10-03 18h01.41.992890 +0530,
-150,z,55,3,13,z,1,0.24093830003403127,None,13,3,55,3,,,,,132.55723859998398,,,,,132.54199500009418,132.55723859998398,133.54101070016623,133.54101070016623,133.54101070016623,133.54101070016623,133.5573547000531,134.5570527999662,134.5570527999662,134.80775590008125,z,1,0.24093830003403127,None,,,,,,,,,4,001,2025-10-03_18h01.36.587,Motor Sequence 4.0,,2025.1.1,59.865111934129715,2025-10-03 18h01.41.992890 +0530,
-50,x,56,0,14,x,1,0.30826570000499487,None,14,0,56,0,,,,,134.82363390014507,,,,,134.8083256999962,134.82363390014507,135.8070763000287,135.8070763000287,135.8070763000287,135.8070763000287,135.82363240001723,136.8070590000134,136.8070590000134,137.12410899996758,x,1,0.30826570000499487,None,,,,,,,,,4,001,2025-10-03_18h01.36.587,Motor Sequence 4.0,,2025.1.1,59.865111934129715,2025-10-03 18h01.41.992890 +0530,
150,v,57,1,14,v,1,0.3717357001733035,None,14,1,57,1,,,,,137.1401073001325,,,,,137.12456890009344,137.1401073001325,138.12358959997073,138.12358959997073,138.12358959997073,138.12358959997073,138.14034790010192,139.1236591001507,139.1236591001507,139.50721059995703,v,1,0.3717357001733035,None,,,,,,,,,4,001,2025-10-03_18h01.36.587,Motor Sequence 4.0,,2025.1.1,59.865111934129715,2025-10-03 18h01.41.992890 +0530,
50,c,58,2,14,c,1,0.31974569987505674,None,14,2,58,2,,,,,139.52258490002714,,,,,139.50769260013476,139.52258490002714,140.50626830011606,140.50626830011606,140.50626830011606,140.50626830011606,140.5232357000932,141.50633660005406,141.50633660005406,141.8401818999555,c,1,0.31974569987505674,None,,,,,,,,,4,001,2025-10-03_18h01.36.587,Motor Sequence 4.0,,2025.1.1,59.865111934129715,2025-10-03 18h01.41.992890 +0530,
-150,z,59,3,14,z,1,0.3437691000290215,None,14,3,59,3,,,,,141.8563200000208,,,,,141.84070209995843,141.8563200000208,142.85640750010498,142.85640750010498,142.85640750010498,142.85640750010498,142.85640750010498,143.83946090005338,143.83946090005338,144.1899868999608,z,1,0.3437691000290215,None,,,,,,,,,4,001,2025-10-03_18h01.36.587,Motor Sequence 4.0,,2025.1.1,59.865111934129715,2025-10-03 18h01.41.992890 +0530,
-50,x,60,0,15,x,1,0.43448479985818267,None,15,0,60,0,,,,,144.20577760017477,,,,,144.19047660008073,144.20577760017477,145.18923020013608,145.18923020013608,145.18923020013608,145.18923020013608,145.20573160005733,146.18895490001887,146.18895490001887,146.63842900004238,x,1,0.43448479985818267,None,,,,,,,,,4,001,2025-10-03_18h01.36.587,Motor Sequence 4.0,,2025.1.1,59.865111934129715,2025-10-03 18h01.41.992890 +0530,
150,v,61,1,15,v,1,0.2506271998863667,None,15,1,61,1,,,,,146.65484070009552,,,,,146.63870740006678,146.65484070009552,147.63927180017345,147.63927180017345,147.63927180017345,147.63927180017345,147.6557054000441,148.6390435001813,148.6390435001813,148.9060739001725,v,1,0.2506271998863667,None,,,,,,,,,4,001,2025-10-03_18h01.36.587,Motor Sequence 4.0,,2025.1.1,59.865111934129715,2025-10-03 18h01.41.992890 +0530,
50,c,62,2,15,c,1,0.4755038998555392,None,15,2,62,2,,,,,148.92159570008516,,,,,148.90656909998506,148.92159570008516,149.9215547000058,149.9215547000058,149.9215547000058,149.9215547000058,149.9215547000058,150.90508299996145,150.90508299996145,151.38898990000598,c,1,0.4755038998555392,None,,,,,,,,,4,001,2025-10-03_18h01.36.587,Motor Sequence 4.0,,2025.1.1,59.865111934129715,2025-10-03 18h01.41.992890 +0530,
-150,z,63,3,15,z,1,0.37901980010792613,None,15,3,63,3,,,,,151.40483240014873,,,,,151.38947980012745,151.40483240014873,152.38834700011648,152.38834700011648,152.38834700011648,152.38834700011648,152.40510370000266,153.38834500010125,153.38834500010125,153.77206670003943,z,1,0.37901980010792613,None,,,,,,,,,4,001,2025-10-03_18h01.36.587,Motor Sequence 4.0,,2025.1.1,59.865111934129715,2025-10-03 18h01.41.992890 +0530,
-50,x,64,0,16,x,1,0.38742920011281967,None,16,0,64,0,,,,,153.78809699998237,,,,,153.77255310001783,153.78809699998237,154.7879884999711,154.7879884999711,154.7879884999711,154.7879884999711,154.7879884999711,155.77141469996423,155.77141469996423,156.17196230008267,x,1,0.38742920011281967,None,,,,,,,,,4,001,2025-10-03_18h01.36.587,Motor Sequence 4.0,,2025.1.1,59.865111934129715,2025-10-03 18h01.41.992890 +0530,
150,v,65,1,16,v,1,0.3566919001750648,None,16,1,65,1,,,,,156.18752140016295,,,,,156.17246190016158,156.18752140016295,157.18783370009623,157.18783370009623,157.18783370009623,157.18783370009623,157.18783370009623,158.18789490009658,158.18789490009658,158.55484009999782,v,1,0.3566919001750648,None,,,,,,,,,4,001,2025-10-03_18h01.36.587,Motor Sequence 4.0,,2025.1.1,59.865111934129715,2025-10-03 18h01.41.992890 +0530,
50,c,66,2,16,c,1,0.4457922000437975,None,16,2,66,2,,,,,158.57033260003664,,,,,158.55533710005693,158.57033260003664,159.55437440006062,159.55437440006062,159.55437440006062,159.55437440006062,159.5707555001136,160.57059280015528,160.57059280015528,161.02093350002542,c,1,0.4457922000437975,None,,,,,,,,,4,001,2025-10-03_18h01.36.587,Motor Sequence 4.0,,2025.1.1,59.865111934129715,2025-10-03 18h01.41.992890 +0530,
-150,z,67,3,16,z,1,0.43481320003047585,None,16,3,67,3,,,,,161.0361723001115,,,,,161.02143379999325,161.0361723001115,162.02030710014515,162.02030710014515,162.02030710014515,162.02030710014515,162.0371228000149,163.03676329995506,163.03676329995506,163.48730679997243,z,1,0.43481320003047585,None,,,,,,,,,4,001,2025-10-03_18h01.36.587,Motor Sequence 4.0,,2025.1.1,59.865111934129715,2025-10-03 18h01.41.992890 +0530,
-50,x,68,0,17,x,1,0.40680019999854267,None,17,0,68,0,,,,,163.5032834999729,,,,,163.48786650015973,163.5032834999729,164.48678630008362,164.48678630008362,164.48678630008362,164.48678630008362,164.50335440016352,165.48681450006552,165.48681450006552,165.90431919996627,x,1,0.40680019999854267,None,,,,,,,,,4,001,2025-10-03_18h01.36.587,Motor Sequence 4.0,,2025.1.1,59.865111934129715,2025-10-03 18h01.41.992890 +0530,
150,v,69,1,17,v,1,0.47440039995126426,None,17,1,69,1,,,,,165.91893190005794,,,,,165.90481950016692,165.91893190005794,166.92002109996974,166.92002109996974,166.92002109996974,166.92002109996974,166.92002109996974,167.9197856001556,167.9197856001556,168.40352450008504,v,1,0.47440039995126426,None,,,,,,,,,4,001,2025-10-03_18h01.36.587,Motor Sequence 4.0,,2025.1.1,59.865111934129715,2025-10-03 18h01.41.992890 +0530,
50,c,70,2,17,c,1,0.4808371998369694,None,17,2,70,2,,,,,168.41869550012052,,,,,168.4039311001543,168.41869550012052,169.40237460006028,169.40237460006028,169.40237460006028,169.40237460006028,169.41954010003246,170.4194378000684,170.4194378000684,170.90346390008926,c,1,0.4808371998369694,None,,,,,,,,,4,001,2025-10-03_18h01.36.587,Motor Sequence 4.0,,2025.1.1,59.865111934129715,2025-10-03 18h01.41.992890 +0530,
-150,z,71,3,17,z,1,0.23355460003949702,None,17,3,71,3,,,,,170.91817099996842,,,,,170.90394980018027,170.91817099996842,171.91958300000988,171.91958300000988,171.91958300000988,171.91958300000988,171.91958300000988,172.91874890006147,172.91874890006147,173.15294450009242,z,1,0.23355460003949702,None,,,,,,,,,4,001,2025-10-03_18h01.36.587,Motor Sequence 4.0,,2025.1.1,59.865111934129715,2025-10-03 18h01.41.992890 +0530,
-50,x,72,0,18,x,1,0.36999600008130074,None,18,0,72,0,,,,,173.16790010011755,,,,,173.15343530010432,173.16790010011755,174.15223660017364,174.15223660017364,174.15223660017364,174.15223660017364,174.16852860013023,175.15236439998262,175.15236439998262,175.5357366001699,x,1,0.36999600008130074,None,,,,,,,,,4,001,2025-10-03_18h01.36.587,Motor Sequence 4.0,,2025.1.1,59.865111934129715,2025-10-03 18h01.41.992890 +0530,
150,v,73,1,18,v,1,0.49435939989052713,None,18,1,73,1,,,,,175.55119380005635,,,,,175.5361997000873,175.55119380005635,176.53556150011718,176.53556150011718,176.53556150011718,176.53556150011718,176.55168080003932,177.53522800002247,177.53522800002247,178.03572709998116,v,1,0.49435939989052713,None,,,,,,,,,4,001,2025-10-03_18h01.36.587,Motor Sequence 4.0,,2025.1.1,59.865111934129715,2025-10-03 18h01.41.992890 +0530,
50,c,74,2,18,c,1,0.33916640002280474,None,18,2,74,2,,,,,178.0513277000282,,,,,178.03621200006455,178.0513277000282,179.03489880007692,179.03489880007692,179.03489880007692,179.03489880007692,179.05155580001883,180.05146360001527,180.05146360001527,180.40226210001856,c,1,0.33916640002280474,None,,,,,,,,,4,001,2025-10-03_18h01.36.587,Motor Sequence 4.0,,2025.1.1,59.865111934129715,2025-10-03 18h01.41.992890 +0530,
-150,z,75,3,18,z,1,0.4191374001093209,None,18,3,75,3,,,,,180.41764320014045,,,,,180.40273950016126,180.41764320014045,181.4183553000912,181.4183553000912,181.4183553000912,181.4183553000912,181.4183553000912,182.41649310011417,182.41649310011417,182.8501699999906,z,1,0.4191374001093209,None,,,,,,,,,4,001,2025-10-03_18h01.36.587,Motor Sequence 4.0,,2025.1.1,59.865111934129715,2025-10-03 18h01.41.992890 +0530,
-50,x,76,0,19,x,1,0.42687870003283024,None,19,0,76,0,,,,,182.8661724999547,,,,,182.85041490010917,182.8661724999547,183.8513566001784,183.8513566001784,183.8513566001784,183.8513566001784,183.86771220015362,184.85093690012582,184.85093690012582,185.28377950005233,x,1,0.42687870003283024,None,,,,,,,,,4,001,2025-10-03_18h01.36.587,Motor Sequence 4.0,,2025.1.1,59.865111934129715,2025-10-03 18h01.41.992890 +0530,
150,v,77,1,19,v,1,0.2843192999716848,None,19,1,77,1,,,,,185.30013200012036,,,,,185.28410409996286,185.30013200012036,186.28406940004788,186.28406940004788,186.28406940004788,186.28406940004788,186.301007400034,187.2839540001005,187.2839540001005,187.5841847001575,v,1,0.2843192999716848,None,,,,,,,,,4,001,2025-10-03_18h01.36.587,Motor Sequence 4.0,,2025.1.1,59.865111934129715,2025-10-03 18h01.41.992890 +0530,
50,c,78,2,19,c,1,0.28102770005352795,None,19,2,78,2,,,,,187.6007936000824,,,,,187.58466279995628,187.6007936000824,188.5840543000959,188.5840543000959,188.5840543000959,188.5840543000959,188.6002650000155,189.5835534001235,189.5835534001235,189.86767140007578,c,1,0.28102770005352795,None,,,,,,,,,4,001,2025-10-03_18h01.36.587,Motor Sequence 4.0,,2025.1.1,59.865111934129715,2025-10-03 18h01.41.992890 +0530,
-150,z,79,3,19,z,1,0.36908159987069666,None,19,3,79,3,,,,,189.88320230017416,,,,,189.86815059999935,189.88320230017416,190.8835175000131,190.8835175000131,190.8835175000131,190.8835175000131,190.8835175000131,191.86642540013418,191.86642540013418,192.25032440014184,z,1,0.36908159987069666,None,,,,,,,,,4,001,2025-10-03_18h01.36.587,Motor Sequence 4.0,,2025.1.1,59.865111934129715,2025-10-03 18h01.41.992890 +0530,
-50,x,80,0,20,x,1,0.7467314000241458,None,20,0,80,0,,,,,192.2658292001579,,,,,192.2507899000775,192.2658292001579,193.25003070011735,193.25003070011735,193.25003070011735,193.25003070011735,193.26659770007245,194.26590650016442,194.26590650016442,195.0175171000883,x,1,0.7467314000241458,None,,,,,,,,,4,001,2025-10-03_18h01.36.587,Motor Sequence 4.0,,2025.1.1,59.865111934129715,2025-10-03 18h01.41.992890 +0530,
150,v,81,1,20,v,1,0.4652843000367284,None,20,1,81,1,,,,,195.0325949001126,,,,,195.01799269998446,195.0325949001126,196.0325553000439,196.0325553000439,196.0325553000439,196.0325553000439,196.0325553000439,197.0327417999506,197.0327417999506,197.49931390001439,v,1,0.4652843000367284,None,,,,,,,,,4,001,2025-10-03_18h01.36.587,Motor Sequence 4.0,,2025.1.1,59.865111934129715,2025-10-03 18h01.41.992890 +0530,
50,c,82,2,20,c,1,0.5209215998183936,None,20,2,82,2,,,,,197.51566740009002,,,,,197.4997964000795,197.51566740009002,198.49905450013466,198.49905450013466,198.49905450013466,198.49905450013466,198.51584900007583,199.4989982000552,199.4989982000552,200.03296400001273,c,1,0.5209215998183936,None,,,,,,,,,4,001,2025-10-03_18h01.36.587,Motor Sequence 4.0,,2025.1.1,59.865111934129715,2025-10-03 18h01.41.992890 +0530,
-150,z,83,3,20,z,1,0.5464655000250787,None,20,3,83,3,,,,,200.04785780003294,,,,,200.0334457999561,200.04785780003294,201.0321337999776,201.0321337999776,201.0321337999776,201.0321337999776,201.04889259999618,202.04881289997138,202.04881289997138,202.59927030000836,z,1,0.5464655000250787,None,,,,,,,,,4,001,2025-10-03_18h01.36.587,Motor Sequence 4.0,,2025.1.1,59.865111934129715,2025-10-03 18h01.41.992890 +0530,
-50,x,84,0,21,x,1,0.7487574999686331,None,21,0,84,0,,,,,202.61511730006896,,,,,202.59976030001417,202.61511730006896,203.59852630016394,203.59852630016394,203.59852630016394,203.59852630016394,203.6150091001764,204.59813790000044,204.59813790000044,205.34937459998764,x,1,0.7487574999686331,None,,,,,,,,,4,001,2025-10-03_18h01.36.587,Motor Sequence 4.0,,2025.1.1,59.865111934129715,2025-10-03 18h01.41.992890 +0530,
150,v,85,1,21,v,1,0.46017670002765954,None,21,1,85,1,,,,,205.36445890017785,,,,,205.34987880010158,205.36445890017785,206.36507109995,206.36507109995,206.36507109995,206.36507109995,206.36507109995,207.348126700148,207.348126700148,207.8150772000663,v,1,0.46017670002765954,None,,,,,,,,,4,001,2025-10-03_18h01.36.587,Motor Sequence 4.0,,2025.1.1,59.865111934129715,2025-10-03 18h01.41.992890 +0530,
50,c,86,2,21,c,1,0.5134010999463499,None,21,2,86,2,,,,,207.83108130004257,,,,,207.81554000009783,207.83108130004257,208.81449849996716,208.81449849996716,208.81449849996716,208.81449849996716,208.83110020007007,209.83080300013535,209.83080300013535,210.34804630000144,c,1,0.5134010999463499,None,,,,,,,,,4,001,2025-10-03_18h01.36.587,Motor Sequence 4.0,,2025.1.1,59.865111934129715,2025-10-03 18h01.41.992890 +0530,
-150,z,87,3,21,z,1,0.8889313000254333,None,21,3,87,3,,,,,210.3643388999626,,,,,210.3485838000197,210.3643388999626,211.34753859997727,211.34753859997727,211.34753859997727,211.34753859997727,211.36435180017725,212.3472331999801,212.3472331999801,213.24807059997693,z,1,0.8889313000254333,None,,,,,,,,,4,001,2025-10-03_18h01.36.587,Motor Sequence 4.0,,2025.1.1,59.865111934129715,2025-10-03 18h01.41.992890 +0530,
-50,x,88,0,22,x,1,0.4885291000828147,None,22,0,88,0,,,,,213.26302570011467,,,,,213.248552700039,213.26302570011467,214.26379410014488,214.26379410014488,214.26379410014488,214.26379410014488,214.26379410014488,215.2637624000199,215.2637624000199,215.76437510014512,x,1,0.4885291000828147,None,,,,,,,,,4,001,2025-10-03_18h01.36.587,Motor Sequence 4.0,,2025.1.1,59.865111934129715,2025-10-03 18h01.41.992890 +0530,
150,v,89,1,22,v,1,0.35935139982029796,None,22,1,89,1,,,,,215.77954070013948,,,,,215.7648517000489,215.77954070013948,216.7801274000667,216.7801274000667,216.7801274000667,216.7801274000667,216.7801274000667,217.77993920003064,217.77993920003064,218.14722870010883,v,1,0.35935139982029796,None,,,,,,,,,4,001,2025-10-03_18h01.36.587,Motor Sequence 4.0,,2025.1.1,59.865111934129715,2025-10-03 18h01.41.992890 +0530,
50,c,90,2,22,c,1,0.47139650001190603,None,22,2,90,2,,,,,218.16286629997194,,,,,218.1476585001219,218.16286629997194,219.14666960015893,219.14666960015893,219.14666960015893,219.14666960015893,219.16331450012513,220.1631686000619,220.1631686000619,220.64715750003234,c,1,0.47139650001190603,None,,,,,,,,,4,001,2025-10-03_18h01.36.587,Motor Sequence 4.0,,2025.1.1,59.865111934129715,2025-10-03 18h01.41.992890 +0530,
-150,z,91,3,22,z,1,0.41735240002162755,None,22,3,91,3,,,,,220.6627428000793,,,,,220.6476404001005,220.6627428000793,221.6462083000224,221.6462083000224,221.6462083000224,221.6462083000224,221.66287999995984,222.66263240016997,222.66263240016997,223.0961778999772,z,1,0.41735240002162755,None,,,,,,,,,4,001,2025-10-03_18h01.36.587,Motor Sequence 4.0,,2025.1.1,59.865111934129715,2025-10-03 18h01.41.992890 +0530,
-50,x,92,0,23,x,1,0.3749613999389112,None,23,0,92,0,,,,,223.1122528000269,,,,,223.09665039996617,223.1122528000269,224.09610940003768,224.09610940003768,224.09610940003768,224.09610940003768,224.11263069999404,225.09599820012227,225.09599820012227,225.47968710004352,x,1,0.3749613999389112,None,,,,,,,,,4,001,2025-10-03_18h01.36.587,Motor Sequence 4.0,,2025.1.1,59.865111934129715,2025-10-03 18h01.41.992890 +0530,
150,v,93,1,23,v,1,0.30900219990871847,None,23,1,93,1,,,,,225.49560470017605,,,,,225.48017830005847,225.49560470017605,226.4788903000299,226.4788903000299,226.4788903000299,226.4788903000299,226.49572929996066,227.4788035999518,227.4788035999518,227.79591500014067,v,1,0.30900219990871847,None,,,,,,,,,4,001,2025-10-03_18h01.36.587,Motor Sequence 4.0,,2025.1.1,59.865111934129715,2025-10-03 18h01.41.992890 +0530,
50,c,94,2,23,c,1,0.27737329993397,None,23,2,94,2,,,,,227.811330600176,,,,,227.79639350017533,227.811330600176,228.79523509996943,228.79523509996943,228.79523509996943,228.79523509996943,228.8118604000192,229.7962833000347,229.7962833000347,230.07842430006713,c,1,0.27737329993397,None,,,,,,,,,4,001,2025-10-03_18h01.36.587,Motor Sequence 4.0,,2025.1.1,59.865111934129715,2025-10-03 18h01.41.992890 +0530,
-150,z,95,3,23,z,1,0.2662961999885738,None,23,3,95,3,,,,,230.0951239001006,,,,,230.07891770009883,230.0951239001006,231.07828010013327,231.07828010013327,231.07828010013327,231.07828010013327,231.0947539000772,232.07818830013275,232.07818830013275,232.34515450010076,z,1,0.2662961999885738,None,,,,,,,,,4,001,2025-10-03_18h01.36.587,Motor Sequence 4.0,,2025.1.1,59.865111934129715,2025-10-03 18h01.41.992890 +0530,
-50,x,96,0,24,x,1,0.26633279980160296,None,24,0,96,0,,,,,232.36132020014338,,,,,232.34564059996046,232.36132020014338,233.34493160014972,233.34493160014972,233.34493160014972,233.34493160014972,233.36140509997495,234.34462600015104,234.34462600015104,234.6116508000996,x,1,0.26633279980160296,None,,,,,,,,,4,001,2025-10-03_18h01.36.587,Motor Sequence 4.0,,2025.1.1,59.865111934129715,2025-10-03 18h01.41.992890 +0530,
150,v,97,1,24,v,1,0.38574360008351505,None,24,1,97,1,,,,,234.62776280008256,,,,,234.612112400122,234.62776280008256,235.61118650017306,235.61118650017306,235.61118650017306,235.61118650017306,235.62766410014592,236.61092850007117,236.61092850007117,237.01154370000586,v,1,0.38574360008351505,None,,,,,,,,,4,001,2025-10-03_18h01.36.587,Motor Sequence 4.0,,2025.1.1,59.865111934129715,2025-10-03 18h01.41.992890 +0530,
50,c,98,2,24,c,1,0.49723379989154637,None,24,2,98,2,,,,,237.02764450013638,,,,,237.01200850005262,237.02764450013638,238.01097010006197,238.01097010006197,238.01097010006197,238.01097010006197,238.02747369999997,239.01070730015635,239.01070730015635,239.51091030007228,c,1,0.49723379989154637,None,,,,,,,,,4,001,2025-10-03_18h01.36.587,Motor Sequence 4.0,,2025.1.1,59.865111934129715,2025-10-03 18h01.41.992890 +0530,
-150,z,99,3,24,z,1,0.3247575999703258,None,24,3,99,3,,,,,239.52766619995236,,,,,239.51142900018021,239.52766619995236,240.51038100011647,240.51038100011647,240.51038100011647,240.51038100011647,240.52741620014422,241.5100472001359,241.5100472001359,241.84461360005662,z,1,0.3247575999703258,None,,,,,,,,,4,001,2025-10-03_18h01.36.587,Motor Sequence 4.0,,2025.1.1,59.865111934129715,2025-10-03 18h01.41.992890 +0530,
-50,x,0,0,0,x,1,0.4373920999933034,None,,,,,0,0,0,0,241.86040080012754,,,,,241.8529871001374,241.86040080012754,242.86034620017745,242.86034620017745,242.86034620017745,242.86034620017745,242.86034620017745,243.86014809994958,243.86014809994958,244.31034490000457,,,,,x,1,0.4373920999933034,None,,,,,4,001,2025-10-03_18h01.36.587,Motor Sequence 4.0,,2025.1.1,59.865111934129715,2025-10-03 18h01.41.992890 +0530,
-150,z,1,1,0,z,1,0.6170612999703735,None,,,,,0,1,1,3,244.32625260017812,,,,,244.31086650001816,244.32625260017812,245.31008440000005,245.31008440000005,245.31008440000005,245.31008440000005,245.3263640999794,246.30931930011138,246.30931930011138,246.92709630005993,,,,,z,1,0.6170612999703735,None,,,,,4,001,2025-10-03_18h01.36.587,Motor Sequence 4.0,,2025.1.1,59.865111934129715,2025-10-03 18h01.41.992890 +0530,
-50,x,2,2,1,x,1,0.7103753001429141,None,,,,,1,2,2,0,246.94307360006496,,,,,246.92760600009933,246.94307360006496,247.92648170003667,247.92648170003667,247.92648170003667,247.92648170003667,247.9427533999551,248.94289340008982,248.94289340008982,249.65997470007278,,,,,x,1,0.7103753001429141,None,,,,,4,001,2025-10-03_18h01.36.587,Motor Sequence 4.0,,2025.1.1,59.865111934129715,2025-10-03 18h01.41.992890 +0530,
50,c,3,3,0,c,1,0.9395031998865306,None,,,,,0,3,3,2,249.67592340009287,,,,,249.66046559996903,249.67592340009287,250.6592439999804,250.6592439999804,250.6592439999804,250.6592439999804,250.67603990016505,251.67544060014188,251.67544060014188,252.62621650006622,,,,,c,1,0.9395031998865306,None,,,,,4,001,2025-10-03_18h01.36.587,Motor Sequence 4.0,,2025.1.1,59.865111934129715,2025-10-03 18h01.41.992890 +0530,
-150,z,4,4,1,z,1,1.1502624000422657,None,,,,,1,4,4,3,252.64195380010642,,,,,252.6266904999502,252.64195380010642,253.62561950017698,253.62561950017698,253.62561950017698,253.62561950017698,253.64241970004514,254.62555460003205,254.62555460003205,255.79234930011444,,,,,z,1,1.1502624000422657,None,,,,,4,001,2025-10-03_18h01.36.587,Motor Sequence 4.0,,2025.1.1,59.865111934129715,2025-10-03 18h01.41.992890 +0530,
-150,z,5,5,2,z,1,0.8351825999561697,None,,,,,2,5,5,3,255.8084424000699,,,,,255.79286550008692,255.8084424000699,256.79176319995895,256.79176319995895,256.79176319995895,256.79176319995895,256.8084681001492,257.7917637000792,257.7917637000792,258.64215810014866,,,,,z,1,0.8351825999561697,None,,,,,4,001,2025-10-03_18h01.36.587,Motor Sequence 4.0,,2025.1.1,59.865111934129715,2025-10-03 18h01.41.992890 +0530,
-50,x,6,6,2,x,1,1.0020796998869628,None,,,,,2,6,6,0,258.65820740000345,,,,,258.6426675999537,258.65820740000345,259.64128700015135,259.64128700015135,259.64128700015135,259.64128700015135,259.6579895999748,260.64138990012,260.64138990012,261.6586955001112,,,,,x,1,1.0020796998869628,None,,,,,4,001,2025-10-03_18h01.36.587,Motor Sequence 4.0,,2025.1.1,59.865111934129715,2025-10-03 18h01.41.992890 +0530,
-50,x,7,7,3,x,1,0.98603540007025,None,,,,,3,7,7,0,261.6744284001179,,,,,261.65918099996634,261.6744284001179,262.6744733999949,262.6744733999949,262.6744733999949,262.6744733999949,262.6744733999949,263.67386940005235,263.67386940005235,264.674664700171,,,,,x,1,0.98603540007025,None,,,,,4,001,2025-10-03_18h01.36.587,Motor Sequence 4.0,,2025.1.1,59.865111934129715,2025-10-03 18h01.41.992890 +0530,
-50,x,8,8,4,x,1,1.0526100001297891,None,,,,,4,8,8,0,264.6904358000029,,,,,264.67517650010996,264.6904358000029,265.6906779999845,265.6906779999845,265.6906779999845,265.6906779999845,265.6906779999845,266.6738202001434,266.6738202001434,267.7409881001804,,,,,x,1,1.0526100001297891,None,,,,,4,001,2025-10-03_18h01.36.587,Motor Sequence 4.0,,2025.1.1,59.865111934129715,2025-10-03 18h01.41.992890 +0530,
-150,z,9,9,3,z,1,0.4661708001513034,None,,,,,3,9,9,3,267.7568260000553,,,,,267.7414989999961,267.7568260000553,268.74022780009545,268.74022780009545,268.74022780009545,268.74022780009545,268.7569677999709,269.75658469996415,269.75658469996415,270.2240697001107,,,,,z,1,0.4661708001513034,None,,,,,4,001,2025-10-03_18h01.36.587,Motor Sequence 4.0,,2025.1.1,59.865111934129715,2025-10-03 18h01.41.992890 +0530,
-150,z,10,10,4,z,1,0.4762538999784738,None,,,,,4,10,10,3,270.2398813001346,,,,,270.2245605001226,270.2398813001346,271.2386945001781,271.2386945001781,271.2386945001781,271.2386945001781,271.2554393000901,272.2233659999911,272.2233659999911,272.70651699998416,,,,,z,1,0.4762538999784738,None,,,,,4,001,2025-10-03_18h01.36.587,Motor Sequence 4.0,,2025.1.1,59.865111934129715,2025-10-03 18h01.41.992890 +0530,
-50,x,11,11,5,x,1,0.6887340999674052,None,,,,,5,11,11,0,272.72292160009965,,,,,272.7069973000325,272.72292160009965,273.70618490013294,273.70618490013294,273.70618490013294,273.70618490013294,273.72272179997526,274.70626950007863,274.70626950007863,275.4067131001502,,,,,x,1,0.6887340999674052,None,,,,,4,001,2025-10-03_18h01.36.587,Motor Sequence 4.0,,2025.1.1,59.865111934129715,2025-10-03 18h01.41.992890 +0530,
50,c,12,12,1,c,1,0.7274114999454468,None,,,,,1,12,12,2,275.4221644999925,,,,,275.4071863000281,275.4221644999925,276.4227469000034,276.4227469000034,276.4227469000034,276.4227469000034,276.4227469000034,277.405700400006,277.405700400006,278.1397391001228,,,,,c,1,0.7274114999454468,None,,,,,4,001,2025-10-03_18h01.36.587,Motor Sequence 4.0,,2025.1.1,59.865111934129715,2025-10-03 18h01.41.992890 +0530,
-150,z,13,13,5,z,1,0.5782896000891924,None,,,,,5,13,13,3,278.15570140001364,,,,,278.1402199000586,278.15570140001364,279.15540669998154,279.15540669998154,279.15540669998154,279.15540669998154,279.15540669998154,280.1552101999987,280.1552101999987,280.73915050015785,,,,,z,1,0.5782896000891924,None,,,,,4,001,2025-10-03_18h01.36.587,Motor Sequence 4.0,,2025.1.1,59.865111934129715,2025-10-03 18h01.41.992890 +0530,
50,c,14,14,2,c,1,0.5464856000617146,None,,,,,2,14,14,2,280.75552210002206,,,,,280.7396212001331,280.75552210002206,281.73875150014646,281.73875150014646,281.73875150014646,281.73875150014646,281.75522920000367,282.7384340001736,282.7384340001736,283.2893547001295,,,,,c,1,0.5464856000617146,None,,,,,4,001,2025-10-03_18h01.36.587,Motor Sequence 4.0,,2025.1.1,59.865111934129715,2025-10-03 18h01.41.992890 +0530,
-150,z,15,15,6,z,1,0.43526200018823147,None,,,,,6,15,15,3,283.304705100134,,,,,283.28982740012,283.304705100134,284.30465970002115,284.30465970002115,284.30465970002115,284.30465970002115,284.30465970002115,285.3047866001725,285.3047866001725,285.75535340001807,,,,,z,1,0.43526200018823147,None,,,,,4,001,2025-10-03_18h01.36.587,Motor Sequence 4.0,,2025.1.1,59.865111934129715,2025-10-03 18h01.41.992890 +0530,
-150,z,16,16,7,z,1,0.4534134999848902,None,,,,,7,16,16,3,285.77099190000445,,,,,285.75585509999655,285.77099190000445,286.75442950008437,286.75442950008437,286.75442950008437,286.75442950008437,286.77151280012913,287.75479050003923,287.75479050003923,288.22207430005074,,,,,z,1,0.4534134999848902,None,,,,,4,001,2025-10-03_18h01.36.587,Motor Sequence 4.0,,2025.1.1,59.865111934129715,2025-10-03 18h01.41.992890 +0530,
50,c,17,17,3,c,1,1.1807868999894708,None,,,,,3,17,17,2,288.23793320008554,,,,,288.22257380001247,288.23793320008554,289.2377387001179,289.2377387001179,289.2377387001179,289.2377387001179,289.2377387001179,290.2372526000254,290.2372526000254,291.4213485000655,,,,,c,1,1.1807868999894708,None,,,,,4,001,2025-10-03_18h01.36.587,Motor Sequence 4.0,,2025.1.1,59.865111934129715,2025-10-03 18h01.41.992890 +0530,
-50,x,18,18,6,x,1,0.7534622000530362,None,,,,,6,18,18,0,291.43732420005836,,,,,291.42184039996937,291.43732420005836,292.42048730002716,292.42048730002716,292.42048730002716,292.42048730002716,292.43717520008795,293.4374788000714,293.4374788000714,294.2040948001668,,,,,x,1,0.7534622000530362,None,,,,,4,001,2025-10-03_18h01.36.587,Motor Sequence 4.0,,2025.1.1,59.865111934129715,2025-10-03 18h01.41.992890 +0530,
150,v,19,19,0,v,1,0.6877091999631375,None,,,,,0,19,19,1,294.2200375001412,,,,,294.2045705001801,294.2200375001412,295.20403250004165,295.20403250004165,295.20403250004165,295.20403250004165,295.2201640000567,296.2035732001532,296.2035732001532,296.9042350000236,,,,,v,1,0.6877091999631375,None,,,,,4,001,2025-10-03_18h01.36.587,Motor Sequence 4.0,,2025.1.1,59.865111934129715,2025-10-03 18h01.41.992890 +0530,
-150,z,20,20,8,z,1,1.3522302999626845,None,,,,,8,20,20,3,296.91980969998986,,,,,296.9047024000902,296.91980969998986,297.9195644001011,297.9195644001011,297.9195644001011,297.9195644001011,297.9195644001011,298.91989880008623,298.91989880008623,300.286957600154,,,,,z,1,1.3522302999626845,None,,,,,4,001,2025-10-03_18h01.36.587,Motor Sequence 4.0,,2025.1.1,59.865111934129715,2025-10-03 18h01.41.992890 +0530,
-50,x,21,21,7,x,1,0.7509772998746485,None,,,,,7,21,21,0,300.30265930015594,,,,,300.28745099995285,300.30265930015594,301.28624200006016,301.28624200006016,301.28624200006016,301.28624200006016,301.3027525001671,302.3022794001736,302.3022794001736,303.06989200017415,,,,,x,1,0.7509772998746485,None,,,,,4,001,2025-10-03_18h01.36.587,Motor Sequence 4.0,,2025.1.1,59.865111934129715,2025-10-03 18h01.41.992890 +0530,
-50,x,22,22,8,x,1,0.42570360004901886,None,,,,,8,22,22,0,303.0860385999549,,,,,303.0703992000781,303.0860385999549,304.0857880001422,304.0857880001422,304.0857880001422,304.0857880001422,304.0857880001422,305.0691478000954,305.0691478000954,305.5032281000167,,,,,x,1,0.42570360004901886,None,,,,,4,001,2025-10-03_18h01.36.587,Motor Sequence 4.0,,2025.1.1,59.865111934129715,2025-10-03 18h01.41.992890 +0530,
150,v,23,23,1,v,1,0.49707059981301427,None,,,,,1,23,23,1,305.51893680007197,,,,,305.5037142999936,305.51893680007197,306.5186687000096,306.5186687000096,306.5186687000096,306.5186687000096,306.5186687000096,307.51845690002665,307.51845690002665,308.0194203001447,,,,,v,1,0.49707059981301427,None,,,,,4,001,2025-10-03_18h01.36.587,Motor Sequence 4.0,,2025.1.1,59.865111934129715,2025-10-03 18h01.41.992890 +0530,
50,c,24,24,4,c,1,0.566768900025636,None,,,,,4,24,24,2,308.0350695999805,,,,,308.0199214001186,308.0350695999805,309.0348888000008,309.0348888000008,309.0348888000008,309.0348888000008,309.0348888000008,310.0351440999657,310.0351440999657,310.6182351000607,,,,,c,1,0.566768900025636,None,,,,,4,001,2025-10-03_18h01.36.587,Motor Sequence 4.0,,2025.1.1,59.865111934129715,2025-10-03 18h01.41.992890 +0530,
50,c,25,25,5,c,1,0.6157283999491483,None,,,,,5,25,25,2,310.6349887000397,,,,,310.618730999995,310.6349887000397,311.6178933000192,311.6178933000192,311.6178933000192,311.6178933000192,311.634981200099,312.61783810006455,312.61783810006455,313.23598979995586,,,,,c,1,0.6157283999491483,None,,,,,4,001,2025-10-03_18h01.36.587,Motor Sequence 4.0,,2025.1.1,59.865111934129715,2025-10-03 18h01.41.992890 +0530,
-50,x,26,26,9,x,1,0.6088161000516266,None,,,,,9,26,26,0,313.25139029999264,,,,,313.2364821000956,313.25139029999264,314.25100630009547,314.25100630009547,314.25100630009547,314.25100630009547,314.25100630009547,315.25121260015294,315.25121260015294,315.8683156000916,,,,,x,1,0.6088161000516266,None,,,,,4,001,2025-10-03_18h01.36.587,Motor Sequence 4.0,,2025.1.1,59.865111934129715,2025-10-03 18h01.41.992890 +0530,
-150,z,27,27,9,z,1,1.0966842998750508,None,,,,,9,27,27,3,315.8839033001568,,,,,315.86880389996804,315.8839033001568,316.8677298000548,316.8677298000548,316.8677298000548,316.8677298000548,316.8843483000528,317.8839549999684,317.8839549999684,318.9845853999723,,,,,z,1,1.0966842998750508,None,,,,,4,001,2025-10-03_18h01.36.587,Motor Sequence 4.0,,2025.1.1,59.865111934129715,2025-10-03 18h01.41.992890 +0530,
-150,z,28,28,10,z,1,0.462404299993068,None,,,,,10,28,28,3,318.99965320015326,,,,,318.9850747999735,318.99965320015326,319.9839427000843,319.9839427000843,319.9839427000843,319.9839427000843,320.00051959999837,321.0001646000892,321.0001646000892,321.4670416000299,,,,,z,1,0.462404299993068,None,,,,,4,001,2025-10-03_18h01.36.587,Motor Sequence 4.0,,2025.1.1,59.865111934129715,2025-10-03 18h01.41.992890 +0530,
-50,x,29,29,10,x,1,0.657041999977082,None,,,,,10,29,29,0,321.4834851999767,,,,,321.46755610010587,321.4834851999767,322.4665998001583,322.4665998001583,322.4665998001583,322.4665998001583,322.48351279995404,323.4664865001105,323.4664865001105,324.13383539998904,,,,,x,1,0.657041999977082,None,,,,,4,001,2025-10-03_18h01.36.587,Motor Sequence 4.0,,2025.1.1,59.865111934129715,2025-10-03 18h01.41.992890 +0530,
150,v,30,30,2,v,1,0.8395466001238674,None,,,,,2,30,30,1,324.1495405000169,,,,,324.13434620015323,324.1495405000169,325.1330798000563,325.1330798000563,325.1330798000563,325.1330798000563,325.1497307000682,326.1496232000645,326.1496232000645,327.0003392000217,,,,,v,1,0.8395466001238674,None,,,,,4,001,2025-10-03_18h01.36.587,Motor Sequence 4.0,,2025.1.1,59.865111934129715,2025-10-03 18h01.41.992890 +0530,
50,c,31,31,6,c,1,0.8349603000096977,None,,,,,6,31,31,2,327.0163480001502,,,,,327.00081250001676,327.0163480001502,328.0162297000643,328.0162297000643,328.0162297000643,328.0162297000643,328.0162297000643,329.01604870008305,329.01604870008305,329.8664210001007,,,,,c,1,0.8349603000096977,None,,,,,4,001,2025-10-03_18h01.36.587,Motor Sequence 4.0,,2025.1.1,59.865111934129715,2025-10-03 18h01.41.992890 +0530,
-150,z,32,32,11,z,1,0.9873381000943482,None,,,,,11,32,32,3,329.8822517001536,,,,,329.866902400041,329.8822517001536,330.8654802001547,330.8654802001547,330.8654802001547,330.8654802001547,330.88238600012846,331.8653294001706,331.8653294001706,332.8656540000811,,,,,z,1,0.9873381000943482,None,,,,,4,001,2025-10-03_18h01.36.587,Motor Sequence 4.0,,2025.1.1,59.865111934129715,2025-10-03 18h01.41.992890 +0530,
-150,z,33,33,12,z,1,0.6087621999904513,None,,,,,12,33,33,3,332.8815419001039,,,,,332.86615560017526,332.8815419001039,333.8653808000963,333.8653808000963,333.8653808000963,333.8653808000963,333.88195369997993,334.8651213000994,334.8651213000994,335.4825208999682,,,,,z,1,0.6087621999904513,None,,,,,4,001,2025-10-03_18h01.36.587,Motor Sequence 4.0,,2025.1.1,59.865111934129715,2025-10-03 18h01.41.992890 +0530,
-150,z,34,34,13,z,1,0.6007409999147058,None,,,,,13,34,34,3,335.4982798001729,,,,,335.4829949999694,335.4982798001729,336.49848200008273,336.49848200008273,336.49848200008273,336.49848200008273,336.49848200008273,337.4983117999509,337.4983117999509,338.1151441000402,,,,,z,1,0.6007409999147058,None,,,,,4,001,2025-10-03_18h01.36.587,Motor Sequence 4.0,,2025.1.1,59.865111934129715,2025-10-03 18h01.41.992890 +0530,
-50,x,35,35,11,x,1,0.8767115999944508,None,,,,,11,35,35,0,338.1312629999593,,,,,338.11566250002943,338.1312629999593,339.1148034001235,339.1148034001235,339.1148034001235,339.1148034001235,339.13146600010805,340.1146715001669,340.1146715001669,340.99830029997975,,,,,x,1,0.8767115999944508,None,,,,,4,001,2025-10-03_18h01.36.587,Motor Sequence 4.0,,2025.1.1,59.865111934129715,2025-10-03 18h01.41.992890 +0530,
150,v,36,36,3,v,1,0.41452560015022755,None,,,,,3,36,36,1,341.0138658999931,,,,,340.9988277000375,341.0138658999931,341.9975149000529,341.9975149000529,341.9975149000529,341.9975149000529,342.0142308000941,342.9976066001691,342.9976066001691,343.4150354999583,,,,,v,1,0.41452560015022755,None,,,,,4,001,2025-10-03_18h01.36.587,Motor Sequence 4.0,,2025.1.1,59.865111934129715,2025-10-03 18h01.41.992890 +0530,
150,v,37,37,4,v,1,0.5173201998695731,None,,,,,4,37,37,1,343.4305573999882,,,,,343.4155315000098,343.4305573999882,344.4137122000102,344.4137122000102,344.4137122000102,344.4137122000102,344.4305610000156,345.43037870014086,345.43037870014086,345.9642308000475,,,,,v,1,0.5173201998695731,None,,,,,4,001,2025-10-03_18h01.36.587,Motor Sequence 4.0,,2025.1.1,59.865111934129715,2025-10-03 18h01.41.992890 +0530,
-150,z,38,38,14,z,1,0.49016210017725825,None,,,,,14,38,38,3,345.9804583999794,,,,,345.964727899991,345.9804583999794,346.9634834001772,346.9634834001772,346.9634834001772,346.9634834001772,346.980068200035,347.96370700001717,347.96370700001717,348.464224900119,,,,,z,1,0.49016210017725825,None,,,,,4,001,2025-10-03_18h01.36.587,Motor Sequence 4.0,,2025.1.1,59.865111934129715,2025-10-03 18h01.41.992890 +0530,
-50,x,39,39,12,x,1,0.49534550006501377,None,,,,,12,39,39,0,348.48021559999324,,,,,348.4647336001508,348.48021559999324,349.47965000011027,349.47965000011027,349.47965000011027,349.47965000011027,349.49650470004417,350.4800698000472,350.4800698000472,350.979784599971,,,,,x,1,0.49534550006501377,None,,,,,4,001,2025-10-03_18h01.36.587,Motor Sequence 4.0,,2025.1.1,59.865111934129715,2025-10-03 18h01.41.992890 +0530,
150,v,40,40,5,v,1,0.5169331000652164,None,,,,,5,40,40,1,350.996026000008,,,,,350.9802662001457,350.996026000008,351.9796541000251,351.9796541000251,351.9796541000251,351.9796541000251,351.99632370006293,352.97899290011264,352.97899290011264,353.496700800024,,,,,v,1,0.5169331000652164,None,,,,,4,001,2025-10-03_18h01.36.587,Motor Sequence 4.0,,2025.1.1,59.865111934129715,2025-10-03 18h01.41.992890 +0530,
50,c,41,41,7,c,1,1.4657252999022603,None,,,,,7,41,41,2,353.512350999983,,,,,353.4971920000389,353.512350999983,354.4959436999634,354.4959436999634,354.4959436999634,354.4959436999634,354.51246660016477,355.5121526999865,355.5121526999865,356.98038040008396,,,,,c,1,1.4657252999022603,None,,,,,4,001,2025-10-03_18h01.36.587,Motor Sequence 4.0,,2025.1.1,59.865111934129715,2025-10-03 18h01.41.992890 +0530,
150,v,42,42,6,v,1,0.5442282999865711,None,,,,,6,42,42,1,356.9946695000399,,,,,356.98092610016465,356.9946695000399,357.99543050001375,357.99543050001375,357.99543050001375,357.99543050001375,357.99543050001375,358.9953316000756,358.9953316000756,359.54596829996444,,,,,v,1,0.5442282999865711,None,,,,,4,001,2025-10-03_18h01.36.587,Motor Sequence 4.0,,2025.1.1,59.865111934129715,2025-10-03 18h01.41.992890 +0530,
-150,z,43,43,15,z,1,0.6108585998881608,None,,,,,15,43,43,3,359.56197979999706,,,,,359.54645600006916,359.56197979999706,360.54520120006055,360.54520120006055,360.54520120006055,360.54520120006055,360.561655000085,361.54526800010353,361.54526800010353,362.16227900004014,,,,,z,1,0.6108585998881608,None,,,,,4,001,2025-10-03_18h01.36.587,Motor Sequence 4.0,,2025.1.1,59.865111934129715,2025-10-03 18h01.41.992890 +0530,
-50,x,44,44,13,x,1,0.5131583998445421,None,,,,,13,44,44,0,362.1782361001242,,,,,362.1627736999653,362.1782361001242,363.1616021001246,363.1616021001246,363.1616021001246,363.1616021001246,363.1781510000583,364.17796010011807,364.17796010011807,364.695490000071,,,,,x,1,0.5131583998445421,None,,,,,4,001,2025-10-03_18h01.36.587,Motor Sequence 4.0,,2025.1.1,59.865111934129715,2025-10-03 18h01.41.992890 +0530,
50,c,45,45,8,c,1,0.5781416001264006,None,,,,,8,45,45,2,364.7113610000815,,,,,364.6959766000509,364.7113610000815,365.69452170003206,365.69452170003206,365.69452170003206,365.69452170003206,365.7111904001795,366.6946303001605,366.6946303001605,367.2779538000468,,,,,c,1,0.5781416001264006,None,,,,,4,001,2025-10-03_18h01.36.587,Motor Sequence 4.0,,2025.1.1,59.865111934129715,2025-10-03 18h01.41.992890 +0530,
-50,x,46,46,14,x,1,0.8822750998660922,None,,,,,14,46,46,0,367.29400410014205,,,,,367.2784975001123,367.29400410014205,368.2778431000188,368.2778431000188,368.2778431000188,368.2778431000188,368.2943043000996,369.27740729996003,369.27740729996003,370.1623117001727,,,,,x,1,0.8822750998660922,None,,,,,4,001,2025-10-03_18h01.36.587,Motor Sequence 4.0,,2025.1.1,59.865111934129715,2025-10-03 18h01.41.992890 +0530,
50,c,47,47,9,c,1,0.6130094998516142,None,,,,,9,47,47,2,370.1775756001007,,,,,370.1628181000706,370.1775756001007,371.17683420004323,371.17683420004323,371.17683420004323,371.17683420004323,371.17683420004323,372.1769773999695,372.1769773999695,372.7942411999684,,,,,c,1,0.6130094998516142,None,,,,,4,001,2025-10-03_18h01.36.587,Motor Sequence 4.0,,2025.1.1,59.865111934129715,2025-10-03 18h01.41.992890 +0530,
150,v,48,48,7,v,1,0.5433525000698864,None,,,,,7,48,48,1,372.81018709996715,,,,,372.7947548001539,372.81018709996715,373.79337380011566,373.79337380011566,373.79337380011566,373.79337380011566,373.81045800005086,374.7931725999806,374.7931725999806,375.34383970010094,,,,,v,1,0.5433525000698864,None,,,,,4,001,2025-10-03_18h01.36.587,Motor Sequence 4.0,,2025.1.1,59.865111934129715,2025-10-03 18h01.41.992890 +0530,
150,v,49,49,8,v,1,0.579833900090307,None,,,,,8,49,49,1,375.36018340010196,,,,,375.3443047001492,375.36018340010196,376.3597715999931,376.3597715999931,376.3597715999931,376.3597715999931,376.3597715999931,377.343083600048,377.343083600048,377.92737900000066,,,,,v,1,0.579833900090307,None,,,,,4,001,2025-10-03_18h01.36.587,Motor Sequence 4.0,,2025.1.1,59.865111934129715,2025-10-03 18h01.41.992890 +0530,
-150,z,50,50,16,z,1,0.8503930000588298,None,,,,,16,50,50,3,377.9426238001324,,,,,377.9279372000601,377.9426238001324,378.94180579995736,378.94180579995736,378.94180579995736,378.94180579995736,378.94180579995736,379.9429649000522,379.9429649000522,380.80983519996516,,,,,z,1,0.8503930000588298,None,,,,,4,001,2025-10-03_18h01.36.587,Motor Sequence 4.0,,2025.1.1,59.865111934129715,2025-10-03 18h01.41.992890 +0530,
50,c,51,51,10,c,1,0.5712002001237124,None,,,,,10,51,51,2,380.82598910015076,,,,,380.81033880007453,380.82598910015076,381.809027899988,381.809027899988,381.809027899988,381.809027899988,381.82596289995126,382.8089980999939,382.8089980999939,383.39319480000995,,,,,c,1,0.5712002001237124,None,,,,,4,001,2025-10-03_18h01.36.587,Motor Sequence 4.0,,2025.1.1,59.865111934129715,2025-10-03 18h01.41.992890 +0530,
-50,x,52,52,15,x,1,0.4618778999429196,None,,,,,15,52,52,0,383.40882140002213,,,,,383.39366309996694,383.40882140002213,384.40858130017295,384.40858130017295,384.40858130017295,384.40858130017295,384.40858130017295,385.4088463000953,385.4088463000953,385.87553990003653,,,,,x,1,0.4618778999429196,None,,,,,4,001,2025-10-03_18h01.36.587,Motor Sequence 4.0,,2025.1.1,59.865111934129715,2025-10-03 18h01.41.992890 +0530,
150,v,53,53,9,v,1,0.4614377999678254,None,,,,,9,53,53,1,385.8916641001124,,,,,385.8760377999861,385.8916641001124,386.8752305000089,386.8752305000089,386.8752305000089,386.8752305000089,386.89160420000553,387.87489950004965,387.87489950004965,388.3421322000213,,,,,v,1,0.4614377999678254,None,,,,,4,001,2025-10-03_18h01.36.587,Motor Sequence 4.0,,2025.1.1,59.865111934129715,2025-10-03 18h01.41.992890 +0530,
-50,x,54,54,16,x,1,0.5319420997984707,None,,,,,16,54,54,0,388.35809240001254,,,,,388.34260400012136,388.35809240001254,389.34142339997925,389.34142339997925,389.34142339997925,389.34142339997925,389.3585119000636,390.34137120004743,390.34137120004743,390.87593760015443,,,,,x,1,0.5319420997984707,None,,,,,4,001,2025-10-03_18h01.36.587,Motor Sequence 4.0,,2025.1.1,59.865111934129715,2025-10-03 18h01.41.992890 +0530,
-50,x,55,55,17,x,1,0.9734549000859261,None,,,,,17,55,55,0,390.8910403000191,,,,,390.8763943000231,390.8910403000191,391.8912599000614,391.8912599000614,391.8912599000614,391.8912599000614,391.8912599000614,392.89101480017416,392.89101480017416,393.8751852000132,,,,,x,1,0.9734549000859261,None,,,,,4,001,2025-10-03_18h01.36.587,Motor Sequence 4.0,,2025.1.1,59.865111934129715,2025-10-03 18h01.41.992890 +0530,
150,v,56,56,10,v,1,0.7197235999628901,None,,,,,10,56,56,1,393.89109889999963,,,,,393.8756580001209,393.89109889999963,394.87419990007766,394.87419990007766,394.87419990007766,394.87419990007766,394.89072350016795,395.89068379998207,395.89068379998207,396.62464130017906,,,,,v,1,0.7197235999628901,None,,,,,4,001,2025-10-03_18h01.36.587,Motor Sequence 4.0,,2025.1.1,59.865111934129715,2025-10-03 18h01.41.992890 +0530,
-150,z,57,57,17,z,1,0.6659007999114692,None,,,,,17,57,57,3,396.640682999976,,,,,396.62514170003124,396.640682999976,397.63910880009644,397.63910880009644,397.63910880009644,397.63910880009644,397.6559282001108,398.64056299999356,398.64056299999356,399.3071959000081,,,,,z,1,0.6659007999114692,None,,,,,4,001,2025-10-03_18h01.36.587,Motor Sequence 4.0,,2025.1.1,59.865111934129715,2025-10-03 18h01.41.992890 +0530,
150,v,58,58,11,v,1,0.7213592000771314,None,,,,,11,58,58,1,399.3234117999673,,,,,399.3077159000095,399.3234117999673,400.30675930017605,400.30675930017605,400.30675930017605,400.30675930017605,400.32354390015826,401.3066763000097,401.3066763000097,402.04036480002105,,,,,v,1,0.7213592000771314,None,,,,,4,001,2025-10-03_18h01.36.587,Motor Sequence 4.0,,2025.1.1,59.865111934129715,2025-10-03 18h01.41.992890 +0530,
50,c,59,59,11,c,1,0.4646974999923259,None,,,,,11,59,59,2,402.0559765000362,,,,,402.0408684001304,402.0559765000362,403.039862500038,403.039862500038,403.039862500038,403.039862500038,403.0567481000908,404.03983799996786,404.03983799996786,404.50719969999045,,,,,c,1,0.4646974999923259,None,,,,,4,001,2025-10-03_18h01.36.587,Motor Sequence 4.0,,2025.1.1,59.865111934129715,2025-10-03 18h01.41.992890 +0530,
-150,z,60,60,18,z,1,0.502446600003168,None,,,,,18,60,60,3,404.52304650004953,,,,,404.50766420015134,404.52304650004953,405.5060725000221,405.5060725000221,405.5060725000221,405.5060725000221,405.52274339995347,406.5226611001417,406.5226611001417,407.039645700017,,,,,z,1,0.502446600003168,None,,,,,4,001,2025-10-03_18h01.36.587,Motor Sequence 4.0,,2025.1.1,59.865111934129715,2025-10-03 18h01.41.992890 +0530,
50,c,61,61,12,c,1,0.3968750999774784,None,,,,,12,61,61,2,407.055486000143,,,,,407.040150700137,407.055486000143,408.03934639994986,408.03934639994986,408.03934639994986,408.03934639994986,408.056025700178,409.0390780000016,409.0390780000016,409.439761799993,,,,,c,1,0.3968750999774784,None,,,,,4,001,2025-10-03_18h01.36.587,Motor Sequence 4.0,,2025.1.1,59.865111934129715,2025-10-03 18h01.41.992890 +0530,
50,c,62,62,13,c,1,0.81319440016523,None,,,,,13,62,62,2,409.4553863001056,,,,,409.44026930001564,409.4553863001056,410.45540040009655,410.45540040009655,410.45540040009655,410.45540040009655,410.45540040009655,411.4547592999879,411.4547592999879,412.2712725000456,,,,,c,1,0.81319440016523,None,,,,,4,001,2025-10-03_18h01.36.587,Motor Sequence 4.0,,2025.1.1,59.865111934129715,2025-10-03 18h01.41.992890 +0530,
-50,x,63,63,18,x,1,0.4466734000016004,None,,,,,18,63,63,0,412.2884520001244,,,,,412.2715062000789,412.2884520001244,413.2716167999897,413.2716167999897,413.2716167999897,413.2716167999897,413.2882608000655,414.2716137000825,414.2716137000825,414.7222387001384,,,,,x,1,0.4466734000016004,None,,,,,4,001,2025-10-03_18h01.36.587,Motor Sequence 4.0,,2025.1.1,59.865111934129715,2025-10-03 18h01.41.992890 +0530,
150,v,64,64,12,v,1,0.45477549987845123,None,,,,,12,64,64,1,414.7381711001508,,,,,414.7227229999844,414.7381711001508,415.72169940010644,415.72169940010644,415.72169940010644,415.72169940010644,415.7379020000808,416.72151750000194,416.72151750000194,417.1888636001386,,,,,v,1,0.45477549987845123,None,,,,,4,001,2025-10-03_18h01.36.587,Motor Sequence 4.0,,2025.1.1,59.865111934129715,2025-10-03 18h01.41.992890 +0530,
150,v,65,65,13,v,1,0.7068313998170197,None,,,,,13,65,65,1,417.2047725999728,,,,,417.18935490003787,417.2047725999728,418.20438150013797,418.20438150013797,418.20438150013797,418.20438150013797,418.20438150013797,419.20449750008993,419.20449750008993,419.9216267000884,,,,,v,1,0.7068313998170197,None,,,,,4,001,2025-10-03_18h01.36.587,Motor Sequence 4.0,,2025.1.1,59.865111934129715,2025-10-03 18h01.41.992890 +0530,
50,c,66,66,14,c,1,12.308530099922791,None,,,,,14,66,66,2,419.93773790006526,,,,,419.92214610008523,419.93773790006526,420.9208798999898,420.9208798999898,420.9208798999898,420.9208798999898,420.93749599996954,421.92082650004886,421.92082650004886,434.2365703000687,,,,,c,1,12.308530099922791,None,,,,,4,001,2025-10-03_18h01.36.587,Motor Sequence 4.0,,2025.1.1,59.865111934129715,2025-10-03 18h01.41.992890 +0530,
50,c,67,67,15,c,1,0.5267845001071692,None,,,,,15,67,67,2,434.2526186001487,,,,,434.2371162001509,434.2526186001487,435.2524171001278,435.2524171001278,435.2524171001278,435.2524171001278,435.2524171001278,436.25242909998633,436.25242909998633,436.785994600039,,,,,c,1,0.5267845001071692,None,,,,,4,001,2025-10-03_18h01.36.587,Motor Sequence 4.0,,2025.1.1,59.865111934129715,2025-10-03 18h01.41.992890 +0530,
50,c,68,68,16,c,1,0.400967099936679,None,,,,,16,68,68,2,436.80190429999493,,,,,436.78646820015274,436.80190429999493,437.78588310000487,437.78588310000487,437.78588310000487,437.78588310000487,437.802047500154,438.78532609995455,438.78532609995455,439.20242250012234,,,,,c,1,0.400967099936679,None,,,,,4,001,2025-10-03_18h01.36.587,Motor Sequence 4.0,,2025.1.1,59.865111934129715,2025-10-03 18h01.41.992890 +0530,
-50,x,69,69,19,x,1,0.510317699983716,None,,,,,19,69,69,0,439.21857270016335,,,,,439.2028924000915,439.21857270016335,440.2183171999641,440.2183171999641,440.2183171999641,440.2183171999641,440.2183171999641,441.2014795001596,441.2014795001596,441.7187553001568,,,,,x,1,0.510317699983716,None,,,,,4,001,2025-10-03_18h01.36.587,Motor Sequence 4.0,,2025.1.1,59.865111934129715,2025-10-03 18h01.41.992890 +0530,
-50,x,70,70,20,x,1,0.4046881999820471,None,,,,,20,70,70,0,441.73490529996343,,,,,441.71925129997544,441.73490529996343,442.71815790003166,442.71815790003166,442.71815790003166,442.71815790003166,442.7346457000822,443.71789500000887,443.71789500000887,444.13521750015207,,,,,x,1,0.4046881999820471,None,,,,,4,001,2025-10-03_18h01.36.587,Motor Sequence 4.0,,2025.1.1,59.865111934129715,2025-10-03 18h01.41.992890 +0530,
-150,z,71,71,19,z,1,0.4977428999263793,None,,,,,19,71,71,3,444.1509793000296,,,,,444.1357219000347,444.1509793000296,445.13433549995534,445.13433549995534,445.13433549995534,445.13433549995534,445.1511995000765,446.1509826001711,446.1509826001711,446.65163840004243,,,,,z,1,0.4977428999263793,None,,,,,4,001,2025-10-03_18h01.36.587,Motor Sequence 4.0,,2025.1.1,59.865111934129715,2025-10-03 18h01.41.992890 +0530,
50,c,72,72,17,c,1,0.5845499997958541,None,,,,,17,72,72,2,446.66766700008884,,,,,446.65213280008174,446.66766700008884,447.6503198000137,447.6503198000137,447.6503198000137,447.6503198000137,447.66742790001445,448.66689370013773,448.66689370013773,449.2678398999851,,,,,c,1,0.5845499997958541,None,,,,,4,001,2025-10-03_18h01.36.587,Motor Sequence 4.0,,2025.1.1,59.865111934129715,2025-10-03 18h01.41.992890 +0530,
150,v,73,73,14,v,1,0.43887309986166656,None,,,,,14,73,73,1,449.28381670010276,,,,,449.26839120010845,449.28381670010276,450.26713509997353,450.26713509997353,450.26713509997353,450.26713509997353,450.28391660004854,451.2671710001305,451.2671710001305,451.71708830003627,,,,,v,1,0.43887309986166656,None,,,,,4,001,2025-10-03_18h01.36.587,Motor Sequence 4.0,,2025.1.1,59.865111934129715,2025-10-03 18h01.41.992890 +0530,
-50,x,74,74,21,x,1,0.37130980007350445,None,,,,,21,74,74,0,451.7322809000034,,,,,451.7173073999584,451.7322809000034,452.7171666000504,452.7171666000504,452.7171666000504,452.7171666000504,452.73361420002766,453.71650049998425,453.71650049998425,454.1007749000564,,,,,x,1,0.37130980007350445,None,,,,,4,001,2025-10-03_18h01.36.587,Motor Sequence 4.0,,2025.1.1,59.865111934129715,2025-10-03 18h01.41.992890 +0530,
150,v,75,75,15,v,1,0.5376569000072777,None,,,,,15,75,75,1,454.11614129994996,,,,,454.10129510005936,454.11614129994996,455.1165811000392,455.1165811000392,455.1165811000392,455.1165811000392,455.1165811000392,456.1166075000074,456.1166075000074,456.66718390001915,,,,,v,1,0.5376569000072777,None,,,,,4,001,2025-10-03_18h01.36.587,Motor Sequence 4.0,,2025.1.1,59.865111934129715,2025-10-03 18h01.41.992890 +0530,
150,v,76,76,16,v,1,0.5677145998924971,None,,,,,16,76,76,1,456.6827420000918,,,,,456.6677233001683,456.6827420000918,457.66619809996337,457.66619809996337,457.66619809996337,457.66619809996337,457.68295130017214,458.6828795999754,458.6828795999754,459.26675159996375,,,,,v,1,0.5677145998924971,None,,,,,4,001,2025-10-03_18h01.36.587,Motor Sequence 4.0,,2025.1.1,59.865111934129715,2025-10-03 18h01.41.992890 +0530,
-50,x,77,77,22,x,1,0.43869680003263056,None,,,,,22,77,77,0,459.28275900008157,,,,,459.26725820009597,459.28275900008157,460.282600000035,460.282600000035,460.282600000035,460.282600000035,460.282600000035,461.28240999998525,461.28240999998525,461.73303650016896,,,,,x,1,0.43869680003263056,None,,,,,4,001,2025-10-03_18h01.36.587,Motor Sequence 4.0,,2025.1.1,59.865111934129715,2025-10-03 18h01.41.992890 +0530,
150,v,78,78,17,v,1,0.5046282999683172,None,,,,,17,78,78,1,461.74784740014,,,,,461.7335266000591,461.74784740014,462.74881390016526,462.74881390016526,462.74881390016526,462.74881390016526,462.74881390016526,463.7489136001095,463.7489136001095,464.26608210010454,,,,,v,1,0.5046282999683172,None,,,,,4,001,2025-10-03_18h01.36.587,Motor Sequence 4.0,,2025.1.1,59.865111934129715,2025-10-03 18h01.41.992890 +0530,
-150,z,79,79,20,z,1,0.592065199976787,None,,,,,20,79,79,3,464.28146850015037,,,,,464.266564700054,464.28146850015037,465.26517580007203,465.26517580007203,465.26517580007203,465.26517580007203,465.28177670016885,466.2818720000796,466.2818720000796,466.8823404000141,,,,,z,1,0.592065199976787,None,,,,,4,001,2025-10-03_18h01.36.587,Motor Sequence 4.0,,2025.1.1,59.865111934129715,2025-10-03 18h01.41.992890 +0530,
150,v,80,80,18,v,1,0.4239004000555724,None,,,,,18,80,80,1,466.8985568000935,,,,,466.8828164001461,466.8985568000935,467.8820722999517,467.8820722999517,467.8820722999517,467.8820722999517,467.8979214001447,468.88146209996194,468.88146209996194,469.3155491000507,,,,,v,1,0.4239004000555724,None,,,,,4,001,2025-10-03_18h01.36.587,Motor Sequence 4.0,,2025.1.1,59.865111934129715,2025-10-03 18h01.41.992890 +0530,
50,c,81,81,18,c,1,0.44917950010858476,None,,,,,18,81,81,2,469.33131580008194,,,,,469.31604390009306,469.33131580008194,470.33126690005884,470.33126690005884,470.33126690005884,470.33126690005884,470.33126690005884,471.33150490000844,471.33150490000844,471.78183540003374,,,,,c,1,0.44917950010858476,None,,,,,4,001,2025-10-03_18h01.36.587,Motor Sequence 4.0,,2025.1.1,59.865111934129715,2025-10-03 18h01.41.992890 +0530,
50,c,82,82,19,c,1,0.47108699986711144,None,,,,,19,82,82,2,471.7977299001068,,,,,471.7823147000745,471.7977299001068,472.7977927001193,472.7977927001193,472.7977927001193,472.7977927001193,472.7977927001193,473.7975484000053,473.7975484000053,474.2812663000077,,,,,c,1,0.47108699986711144,None,,,,,4,001,2025-10-03_18h01.36.587,Motor Sequence 4.0,,2025.1.1,59.865111934129715,2025-10-03 18h01.41.992890 +0530,
150,v,83,83,19,v,1,0.4233188999351114,None,,,,,19,83,83,1,474.2968437001109,,,,,474.2817587000318,474.2968437001109,475.28057299996726,475.28057299996726,475.28057299996726,475.28057299996726,475.29718510014936,476.2808260000311,476.2808260000311,476.71469429996796,,,,,v,1,0.4233188999351114,None,,,,,4,001,2025-10-03_18h01.36.587,Motor Sequence 4.0,,2025.1.1,59.865111934129715,2025-10-03 18h01.41.992890 +0530,
-150,z,84,84,21,z,1,0.4443546999245882,None,,,,,21,84,84,3,476.72940369998105,,,,,476.7151673999615,476.72940369998105,477.730298000155,477.730298000155,477.730298000155,477.730298000155,477.730298000155,478.7305201999843,478.7305201999843,479.1801973001566,,,,,z,1,0.4443546999245882,None,,,,,4,001,2025-10-03_18h01.36.587,Motor Sequence 4.0,,2025.1.1,59.865111934129715,2025-10-03 18h01.41.992890 +0530,
-50,x,85,85,23,x,1,0.5463779999408871,None,,,,,23,85,85,0,479.19684360013343,,,,,479.18067830009386,479.19684360013343,480.18001680006273,480.18001680006273,480.18001680006273,480.18001680006273,480.1962215001695,481.17967450013384,481.17967450013384,481.7303320001811,,,,,x,1,0.5463779999408871,None,,,,,4,001,2025-10-03_18h01.36.587,Motor Sequence 4.0,,2025.1.1,59.865111934129715,2025-10-03 18h01.41.992890 +0530,
-150,z,86,86,22,z,1,0.4368535000830889,None,,,,,22,86,86,3,481.74663490010425,,,,,481.7307728000451,481.74663490010425,482.72970960009843,482.72970960009843,482.72970960009843,482.72970960009843,482.7465373000596,483.74578710016795,483.74578710016795,484.19616020005196,,,,,z,1,0.4368535000830889,None,,,,,4,001,2025-10-03_18h01.36.587,Motor Sequence 4.0,,2025.1.1,59.865111934129715,2025-10-03 18h01.41.992890 +0530,
150,v,87,87,20,v,1,0.46361390012316406,None,,,,,20,87,87,1,484.2118951000739,,,,,484.1966481001582,484.2118951000739,485.19506660010666,485.19506660010666,485.19506660010666,485.19506660010666,485.2119241000619,486.19528029998764,486.19528029998764,486.6626315000467,,,,,v,1,0.46361390012316406,None,,,,,4,001,2025-10-03_18h01.36.587,Motor Sequence 4.0,,2025.1.1,59.865111934129715,2025-10-03 18h01.41.992890 +0530,
150,v,88,88,21,v,1,0.5225626998580992,None,,,,,21,88,88,1,486.6789698000066,,,,,486.6631073001772,486.6789698000066,487.6622016001493,487.6622016001493,487.6622016001493,487.6622016001493,487.6784672001377,488.66169740003534,488.66169740003534,489.195789600024,,,,,v,1,0.5225626998580992,None,,,,,4,001,2025-10-03_18h01.36.587,Motor Sequence 4.0,,2025.1.1,59.865111934129715,2025-10-03 18h01.41.992890 +0530,
150,v,89,89,22,v,1,0.46486079995520413,None,,,,,22,89,89,1,489.2114910001401,,,,,489.1962600001134,489.2114910001401,490.19546870002523,490.19546870002523,490.19546870002523,490.19546870002523,490.2113728001714,491.19540300010704,491.19540300010704,491.6629262000788,,,,,v,1,0.46486079995520413,None,,,,,4,001,2025-10-03_18h01.36.587,Motor Sequence 4.0,,2025.1.1,59.865111934129715,2025-10-03 18h01.41.992890 +0530,
50,c,90,90,20,c,1,0.5130940999370068,None,,,,,20,90,90,2,491.67824629996903,,,,,491.66339460015297,491.67824629996903,492.6783575001173,492.6783575001173,492.6783575001173,492.6783575001173,492.6783575001173,493.67825640016235,493.67825640016235,494.19563950016163,,,,,c,1,0.5130940999370068,None,,,,,4,001,2025-10-03_18h01.36.587,Motor Sequence 4.0,,2025.1.1,59.865111934129715,2025-10-03 18h01.41.992890 +0530,
-150,z,91,91,23,z,1,0.43596459995023906,None,,,,,23,91,91,3,494.21141420002095,,,,,494.1961278000381,494.21141420002095,495.21165019995533,495.21165019995533,495.21165019995533,495.21165019995533,495.21165019995533,496.2115399001632,496.2115399001632,496.66205570008606,,,,,z,1,0.43596459995023906,None,,,,,4,001,2025-10-03_18h01.36.587,Motor Sequence 4.0,,2025.1.1,59.865111934129715,2025-10-03 18h01.41.992890 +0530,
150,v,92,92,23,v,1,0.3268738999031484,None,,,,,23,92,92,1,496.67795370006934,,,,,496.66256770002656,496.67795370006934,497.67762840003707,497.67762840003707,497.67762840003707,497.67762840003707,497.67762840003707,498.67760130017996,498.67760130017996,499.0112330999691,,,,,v,1,0.3268738999031484,None,,,,,4,001,2025-10-03_18h01.36.587,Motor Sequence 4.0,,2025.1.1,59.865111934129715,2025-10-03 18h01.41.992890 +0530,
-150,z,93,93,24,z,1,0.3992721000686288,None,,,,,24,93,93,3,499.0264266000595,,,,,499.01155490009114,499.0264266000595,500.01058780006133,500.01058780006133,500.01058780006133,500.01058780006133,500.0277428999543,501.01049769995734,501.01049769995734,501.4116090000607,,,,,z,1,0.3992721000686288,None,,,,,4,001,2025-10-03_18h01.36.587,Motor Sequence 4.0,,2025.1.1,59.865111934129715,2025-10-03 18h01.41.992890 +0530,
-50,x,94,94,24,x,1,0.4549012000206858,None,,,,,24,94,94,0,501.42670510010794,,,,,501.4120820001699,501.42670510010794,502.4269711000379,502.4269711000379,502.4269711000379,502.4269711000379,502.4269711000379,503.4269847001415,503.4269847001415,503.8943874000106,,,,,x,1,0.4549012000206858,None,,,,,4,001,2025-10-03_18h01.36.587,Motor Sequence 4.0,,2025.1.1,59.865111934129715,2025-10-03 18h01.41.992890 +0530,
50,c,95,95,21,c,1,0.6139650999102741,None,,,,,21,95,95,2,503.91028339997865,,,,,503.8948810000438,503.91028339997865,504.90899799996987,504.90899799996987,504.90899799996987,504.90899799996987,504.9267182999756,505.8932342999615,505.8932342999615,506.5105703000445,,,,,c,1,0.6139650999102741,None,,,,,4,001,2025-10-03_18h01.36.587,Motor Sequence 4.0,,2025.1.1,59.865111934129715,2025-10-03 18h01.41.992890 +0530,
150,v,96,96,24,v,1,0.4736122000031173,None,,,,,24,96,96,1,506.52626290009357,,,,,506.5110627999529,506.52626290009357,507.5097827001009,507.5097827001009,507.5097827001009,507.5097827001009,507.52637060009874,508.5097437000368,508.5097437000368,508.9934737000149,,,,,v,1,0.4736122000031173,None,,,,,4,001,2025-10-03_18h01.36.587,Motor Sequence 4.0,,2025.1.1,59.865111934129715,2025-10-03 18h01.41.992890 +0530,
50,c,97,97,22,c,1,0.46301329997368157,None,,,,,22,97,97,2,509.00986180012114,,,,,508.9939477001317,509.00986180012114,509.993294400163,509.993294400163,509.993294400163,509.993294400163,510.0094288000837,510.9926674000453,510.9926674000453,511.46004090015776,,,,,c,1,0.46301329997368157,None,,,,,4,001,2025-10-03_18h01.36.587,Motor Sequence 4.0,,2025.1.1,59.865111934129715,2025-10-03 18h01.41.992890 +0530,
50,c,98,98,23,c,1,0.3668793998658657,None,,,,,23,98,98,2,511.4758075000718,,,,,511.4605582000222,511.4758075000718,512.4759715001564,512.4759715001564,512.4759715001564,512.4759715001564,512.4759715001564,513.4591085000429,513.4591085000429,513.8425011001527,,,,,c,1,0.3668793998658657,None,,,,,4,001,2025-10-03_18h01.36.587,Motor Sequence 4.0,,2025.1.1,59.865111934129715,2025-10-03 18h01.41.992890 +0530,
50,c,99,99,24,c,1,0.3649693999905139,None,,,,,24,99,99,2,513.8592568000313,,,,,513.8430048001464,513.8592568000313,514.8418034999631,514.8418034999631,514.8418034999631,514.8418034999631,514.8588199000806,515.8421047001611,515.8421047001611,516.2098801000975,,,,,c,1,0.3649693999905139,None,,,,,4,001,2025-10-03_18h01.36.587,Motor Sequence 4.0,,2025.1.1,59.865111934129715,2025-10-03 18h01.41.992890 +0530,
,,,,,,,,,,,,,,,,,,,,,,,,,,,,,,,,,,,,,,,,516.2100601999555,516.2256140999962,521.2246539001353,521.2087831001263,4,001,2025-10-03_18h01.36.587,Motor Sequence 4.0,,2025.1.1,59.865111934129715,2025-10-03 18h01.41.992890 +0530,
