pos,corr_resp,thisN,thisTrialN,thisRepN,key_resp.keys,key_resp.corr,key_resp.rt,key_resp.duration,trials.thisRepN,trials.thisTrialN,trials.thisN,trials.thisIndex,trials_2.thisRepN,trials_2.thisTrialN,trials_2.thisN,trials_2.thisIndex,thisRow.t,notes,Welcome.started,text.started,Welcome.stopped,trial.started,Fixation.started,Line1.started,line2.started,line3.started,line4.started,Fixation.stopped,probe.started,key_resp.started,trial.stopped,trials.key_resp.keys,trials.key_resp.corr,trials.key_resp.rt,trials.key_resp.duration,trials_2.key_resp.keys,trials_2.key_resp.corr,trials_2.key_resp.rt,trials_2.key_resp.duration,Thank_You.started,text_2.started,text_2.stopped,Thank_You.stopped,participant,session,date,expName,expVersion,psychopyVersion,frameRate,expStart,
,,,,,,,,,,,,,,,,,,,0.00987479998730123,0.027660999912768602,3.0115485000424087,,,,,,,,,,,,,,,,,,,,,,,5,001,2025-10-03_18h20.03.261,Motor Sequence 4.0,,2025.1.1,59.981741614342035,2025-10-03 18h20.10.702074 +0530,
-50,x,0,0,0,x,1,0.7466841000132263,None,0,0,0,0,,,,,3.0427135000936687,,,,,3.022707900032401,3.0427135000936687,4.011636800132692,4.011636800132692,4.011636800132692,4.011636800132692,4.044748099986464,5.011143899988383,5.011143899988383,5.769051300128922,x,1,0.7466841000132263,None,,,,,,,,,5,001,2025-10-03_18h20.03.261,Motor Sequence 4.0,,2025.1.1,59.981741614342035,2025-10-03 18h20.10.702074 +0530,
150,v,1,1,0,v,1,0.2863845999818295,None,0,1,1,1,,,,,5.777386599918827,,,,,5.769611099967733,5.777386599918827,6.776982800103724,6.776982800103724,6.776982800103724,6.776982800103724,6.776982800103724,7.777297700056806,7.777297700056806,8.077873199945316,v,1,0.2863845999818295,None,,,,,,,,,5,001,2025-10-03_18h20.03.261,Motor Sequence 4.0,,2025.1.1,59.981741614342035,2025-10-03 18h20.10.702074 +0530,
50,c,2,2,0,c,1,0.3091305000707507,None,0,2,2,2,,,,,8.094373099971563,,,,,8.078353600110859,8.094373099971563,9.077200900064781,9.077200900064781,9.077200900064781,9.077200900064781,9.094434400089085,10.076996500138193,10.076996500138193,10.394389500143006,c,1,0.3091305000707507,None,,,,,,,,,5,001,2025-10-03_18h20.03.261,Motor Sequence 4.0,,2025.1.1,59.981741614342035,2025-10-03 18h20.10.702074 +0530,
-150,z,3,3,0,z,1,0.2624028001446277,None,0,3,3,3,,,,,10.41046870010905,,,,,10.394879400031641,10.41046870010905,11.394109999993816,11.394109999993816,11.394109999993816,11.394109999993816,11.410545699996874,12.394026099937037,12.394026099937037,12.66066880011931,z,1,0.2624028001446277,None,,,,,,,,,5,001,2025-10-03_18h20.03.261,Motor Sequence 4.0,,2025.1.1,59.981741614342035,2025-10-03 18h20.10.702074 +0530,
-50,x,4,0,1,x,1,0.33811550005339086,None,1,0,4,0,,,,,12.676947300089523,,,,,12.661142600001767,12.676947300089523,13.660423299996182,13.660423299996182,13.660423299996182,13.660423299996182,13.676914100069553,14.660031900042668,14.660031900042668,15.011076299939305,x,1,0.33811550005339086,None,,,,,,,,,5,001,2025-10-03_18h20.03.261,Motor Sequence 4.0,,2025.1.1,59.981741614342035,2025-10-03 18h20.10.702074 +0530,
150,v,5,1,1,v,1,0.44730779994279146,None,1,1,5,1,,,,,15.026842700084671,,,,,15.011582199949771,15.026842700084671,16.027184900129214,16.027184900129214,16.027184900129214,16.027184900129214,16.027184900129214,17.026722900103778,17.026722900103778,17.4770233000163,v,1,0.44730779994279146,None,,,,,,,,,5,001,2025-10-03_18h20.03.261,Motor Sequence 4.0,,2025.1.1,59.981741614342035,2025-10-03 18h20.10.702074 +0530,
50,c,6,2,1,c,1,0.30399159993976355,None,1,2,6,2,,,,,17.492396000074223,,,,,17.477515999926254,17.492396000074223,18.476095099933445,18.476095099933445,18.476095099933445,18.476095099933445,18.493232700042427,19.47642259998247,19.47642259998247,19.79410790000111,c,1,0.30399159993976355,None,,,,,,,,,5,001,2025-10-03_18h20.03.261,Motor Sequence 4.0,,2025.1.1,59.981741614342035,2025-10-03 18h20.10.702074 +0530,
-150,z,7,3,1,z,1,0.3626351999118924,None,1,3,7,3,,,,,19.80923300003633,,,,,19.794599800137803,19.80923300003633,20.809447000036016,20.809447000036016,20.809447000036016,20.809447000036016,20.809447000036016,21.80941540002823,21.80941540002823,22.17606099997647,z,1,0.3626351999118924,None,,,,,,,,,5,001,2025-10-03_18h20.03.261,Motor Sequence 4.0,,2025.1.1,59.981741614342035,2025-10-03 18h20.10.702074 +0530,
-50,x,8,0,2,x,1,0.32748430012725294,None,2,0,8,0,,,,,22.19279360002838,,,,,22.17653810000047,22.19279360002838,23.176292499992996,23.176292499992996,23.176292499992996,23.176292499992996,23.192872900050133,24.17485160008073,24.17485160008073,24.508752400055528,x,1,0.32748430012725294,None,,,,,,,,,5,001,2025-10-03_18h20.03.261,Motor Sequence 4.0,,2025.1.1,59.981741614342035,2025-10-03 18h20.10.702074 +0530,
150,v,9,1,2,v,1,0.3714431000407785,None,2,1,9,1,,,,,24.525194900110364,,,,,24.509191000135615,24.525194900110364,25.509015900082886,25.509015900082886,25.509015900082886,25.509015900082886,25.52551560010761,26.50907210004516,26.50907210004516,26.892291200114414,v,1,0.3714431000407785,None,,,,,,,,,5,001,2025-10-03_18h20.03.261,Motor Sequence 4.0,,2025.1.1,59.981741614342035,2025-10-03 18h20.10.702074 +0530,
50,c,10,2,2,c,1,0.39340900001116097,None,2,2,10,2,,,,,26.90869539999403,,,,,26.892826800001785,26.90869539999403,27.892256600083783,27.892256600083783,27.892256600083783,27.892256600083783,27.908841599943116,28.892080900026485,28.892080900026485,29.29263769998215,c,1,0.39340900001116097,None,,,,,,,,,5,001,2025-10-03_18h20.03.261,Motor Sequence 4.0,,2025.1.1,59.981741614342035,2025-10-03 18h20.10.702074 +0530,
-150,z,11,3,2,z,1,0.3895427999086678,None,2,3,11,3,,,,,29.308136000065133,,,,,29.293155499966815,29.308136000065133,30.308572700014338,30.308572700014338,30.308572700014338,30.308572700014338,30.308572700014338,31.291646300116554,31.291646300116554,31.691990199964494,z,1,0.3895427999086678,None,,,,,,,,,5,001,2025-10-03_18h20.03.261,Motor Sequence 4.0,,2025.1.1,59.981741614342035,2025-10-03 18h20.10.702074 +0530,
-50,x,12,0,3,x,1,0.3953313999809325,None,3,0,12,0,,,,,31.70830180007033,,,,,31.69254170008935,31.70830180007033,32.69150900002569,32.69150900002569,32.69150900002569,32.69150900002569,32.70720040006563,33.70662180008367,33.70662180008367,34.10653180000372,x,1,0.3953313999809325,None,,,,,,,,,5,001,2025-10-03_18h20.03.261,Motor Sequence 4.0,,2025.1.1,59.981741614342035,2025-10-03 18h20.10.702074 +0530,
150,v,13,1,3,v,1,0.435762400040403,None,3,1,13,1,,,,,34.12298300000839,,,,,34.106793200131506,34.12298300000839,35.10791509994306,35.10791509994306,35.10791509994306,35.10791509994306,35.123982599936426,36.1077330999542,36.1077330999542,36.558012899942696,v,1,0.435762400040403,None,,,,,,,,,5,001,2025-10-03_18h20.03.261,Motor Sequence 4.0,,2025.1.1,59.981741614342035,2025-10-03 18h20.10.702074 +0530,
50,c,14,2,3,c,1,0.49726770003326237,None,3,2,14,2,,,,,36.57362170005217,,,,,36.55848319991492,36.57362170005217,37.55731669999659,37.55731669999659,37.55731669999659,37.55731669999659,37.5741965000052,38.5730691999197,38.5730691999197,39.07384179998189,c,1,0.49726770003326237,None,,,,,,,,,5,001,2025-10-03_18h20.03.261,Motor Sequence 4.0,,2025.1.1,59.981741614342035,2025-10-03 18h20.10.702074 +0530,
-150,z,15,3,3,z,1,0.3966598999686539,None,3,3,15,3,,,,,39.089668000116944,,,,,39.07432090002112,39.089668000116944,40.07357060001232,40.07357060001232,40.07357060001232,40.07357060001232,40.089869800023735,41.0898078000173,41.0898078000173,41.49063830007799,z,1,0.3966598999686539,None,,,,,,,,,5,001,2025-10-03_18h20.03.261,Motor Sequence 4.0,,2025.1.1,59.981741614342035,2025-10-03 18h20.10.702074 +0530,
-50,x,16,0,4,x,1,0.3823454000521451,None,4,0,16,0,,,,,41.506574500119314,,,,,41.49112750007771,41.506574500119314,42.5053123999387,42.5053123999387,42.5053123999387,42.5053123999387,42.5053123999387,43.506586600095034,43.506586600095034,43.89122619992122,x,1,0.3823454000521451,None,,,,,,,,,5,001,2025-10-03_18h20.03.261,Motor Sequence 4.0,,2025.1.1,59.981741614342035,2025-10-03 18h20.10.702074 +0530,
150,v,17,1,4,v,1,0.40308010019361973,None,4,1,17,1,,,,,43.9059530000668,,,,,43.8917008000426,43.9059530000668,44.905986699974164,44.905986699974164,44.905986699974164,44.905986699974164,44.905986699974164,45.90554039995186,45.90554039995186,46.322943000122905,v,1,0.40308010019361973,None,,,,,,,,,5,001,2025-10-03_18h20.03.261,Motor Sequence 4.0,,2025.1.1,59.981741614342035,2025-10-03 18h20.10.702074 +0530,
50,c,18,2,4,c,1,0.4874056000262499,None,4,2,18,2,,,,,46.3387201000005,,,,,46.32343270001002,46.3387201000005,47.32210689992644,47.32210689992644,47.32210689992644,47.32210689992644,47.33896730002016,48.322609700029716,48.322609700029716,48.82293609995395,c,1,0.4874056000262499,None,,,,,,,,,5,001,2025-10-03_18h20.03.261,Motor Sequence 4.0,,2025.1.1,59.981741614342035,2025-10-03 18h20.10.702074 +0530,
-150,z,19,3,4,z,1,0.3944912999868393,None,4,3,19,3,,,,,48.83853660011664,,,,,48.82343000010587,48.83853660011664,49.83814559993334,49.83814559993334,49.83814559993334,49.83814559993334,49.83814559993334,50.82223520008847,50.82223520008847,51.22254909994081,z,1,0.3944912999868393,None,,,,,,,,,5,001,2025-10-03_18h20.03.261,Motor Sequence 4.0,,2025.1.1,59.981741614342035,2025-10-03 18h20.10.702074 +0530,
-50,x,20,0,5,x,1,0.4153971001505852,None,5,0,20,0,,,,,51.23861000011675,,,,,51.22303600003943,51.23861000011675,52.22192170005292,52.22192170005292,52.22192170005292,52.22192170005292,52.238817899953574,53.22214540001005,53.22214540001005,53.639457599958405,x,1,0.4153971001505852,None,,,,,,,,,5,001,2025-10-03_18h20.03.261,Motor Sequence 4.0,,2025.1.1,59.981741614342035,2025-10-03 18h20.10.702074 +0530,
150,v,21,1,5,v,1,0.40383860003203154,None,5,1,21,1,,,,,53.655129600083455,,,,,53.63994979998097,53.655129600083455,54.65549320005812,54.65549320005812,54.65549320005812,54.65549320005812,54.65549320005812,55.65513770002872,55.65513770002872,56.07213989994489,v,1,0.40383860003203154,None,,,,,,,,,5,001,2025-10-03_18h20.03.261,Motor Sequence 4.0,,2025.1.1,59.981741614342035,2025-10-03 18h20.10.702074 +0530,
50,c,22,2,5,c,1,0.36844140011817217,None,5,2,22,2,,,,,56.087394499918446,,,,,56.07260840013623,56.087394499918446,57.07155130011961,57.07155130011961,57.07155130011961,57.07155130011961,57.088224000064656,58.07163070002571,58.07163070002571,58.45483090006746,c,1,0.36844140011817217,None,,,,,,,,,5,001,2025-10-03_18h20.03.261,Motor Sequence 4.0,,2025.1.1,59.981741614342035,2025-10-03 18h20.10.702074 +0530,
-150,z,23,3,5,z,1,0.4326878001447767,None,5,3,23,3,,,,,58.470634900033474,,,,,58.45509549998678,58.470634900033474,59.47000769991428,59.47000769991428,59.47000769991428,59.47000769991428,59.47000769991428,60.45461210003123,60.45461210003123,60.888469900004566,z,1,0.4326878001447767,None,,,,,,,,,5,001,2025-10-03_18h20.03.261,Motor Sequence 4.0,,2025.1.1,59.981741614342035,2025-10-03 18h20.10.702074 +0530,
-50,x,24,0,6,x,1,0.41018719994463027,None,6,0,24,0,,,,,60.9033810000401,,,,,60.88894929992966,60.9033810000401,61.903360299998894,61.903360299998894,61.903360299998894,61.903360299998894,61.903360299998894,62.9034766999539,62.9034766999539,63.320710100000724,x,1,0.41018719994463027,None,,,,,,,,,5,001,2025-10-03_18h20.03.261,Motor Sequence 4.0,,2025.1.1,59.981741614342035,2025-10-03 18h20.10.702074 +0530,
150,v,25,1,6,v,1,0.3989688998553902,None,6,1,25,1,,,,,63.336916300002486,,,,,63.321184600004926,63.336916300002486,64.32050850009546,64.32050850009546,64.32050850009546,64.32050850009546,64.3368679000996,65.32014330010861,65.32014330010861,65.72134910011664,v,1,0.3989688998553902,None,,,,,,,,,5,001,2025-10-03_18h20.03.261,Motor Sequence 4.0,,2025.1.1,59.981741614342035,2025-10-03 18h20.10.702074 +0530,
50,c,26,2,6,c,1,0.4094369998201728,None,6,2,26,2,,,,,65.73633370012976,,,,,65.72184700006619,65.73633370012976,66.73653310001828,66.73653310001828,66.73653310001828,66.73653310001828,66.73653310001828,67.73558890004642,67.73558890004642,68.152363399975,c,1,0.4094369998201728,None,,,,,,,,,5,001,2025-10-03_18h20.03.261,Motor Sequence 4.0,,2025.1.1,59.981741614342035,2025-10-03 18h20.10.702074 +0530,
-150,z,27,3,6,z,1,0.2788444000761956,None,6,3,27,3,,,,,68.168942600023,,,,,68.15262500010431,68.168942600023,69.15293480013497,69.15293480013497,69.15293480013497,69.15293480013497,69.16965540009551,70.15260699996725,70.15260699996725,70.4366087000817,z,1,0.2788444000761956,None,,,,,,,,,5,001,2025-10-03_18h20.03.261,Motor Sequence 4.0,,2025.1.1,59.981741614342035,2025-10-03 18h20.10.702074 +0530,
-50,x,28,0,7,x,1,0.43299799994565547,None,7,0,28,0,,,,,70.45219770004041,,,,,70.43709879997186,70.45219770004041,71.43562359991483,71.43562359991483,71.43562359991483,71.43562359991483,71.45278110005893,72.43587170005776,72.43587170005776,72.86979150003754,x,1,0.43299799994565547,None,,,,,,,,,5,001,2025-10-03_18h20.03.261,Motor Sequence 4.0,,2025.1.1,59.981741614342035,2025-10-03 18h20.10.702074 +0530,
150,v,29,1,7,v,1,0.44383150013163686,None,7,1,29,1,,,,,72.88601269992068,,,,,72.8703189000953,72.88601269992068,73.86892529996112,73.86892529996112,73.86892529996112,73.86892529996112,73.88612819998525,74.88564900006168,74.88564900006168,75.33623360004276,v,1,0.44383150013163686,None,,,,,,,,,5,001,2025-10-03_18h20.03.261,Motor Sequence 4.0,,2025.1.1,59.981741614342035,2025-10-03 18h20.10.702074 +0530,
50,c,30,2,7,c,1,0.5102526000700891,None,7,2,30,2,,,,,75.35242050001398,,,,,75.33670810004696,75.35242050001398,76.35192169994116,76.35192169994116,76.35192169994116,76.35192169994116,76.35192169994116,77.35126210004091,77.35126210004091,77.86944649997167,c,1,0.5102526000700891,None,,,,,,,,,5,001,2025-10-03_18h20.03.261,Motor Sequence 4.0,,2025.1.1,59.981741614342035,2025-10-03 18h20.10.702074 +0530,
-150,z,31,3,7,z,1,0.4125971000175923,None,7,3,31,3,,,,,77.88519369997084,,,,,77.86987189995125,77.88519369997084,78.86882259999402,78.86882259999402,78.86882259999402,78.86882259999402,78.88556740013883,79.88518849993125,79.88518849993125,80.30231699999422,z,1,0.4125971000175923,None,,,,,,,,,5,001,2025-10-03_18h20.03.261,Motor Sequence 4.0,,2025.1.1,59.981741614342035,2025-10-03 18h20.10.702074 +0530,
-50,x,32,0,8,x,1,0.5678779000882059,None,8,0,32,0,,,,,80.3185374001041,,,,,80.3027953999117,80.3185374001041,81.30186989996582,81.30186989996582,81.30186989996582,81.30186989996582,81.31860599992797,82.30171860009432,82.30171860009432,82.8855713000521,x,1,0.5678779000882059,None,,,,,,,,,5,001,2025-10-03_18h20.03.261,Motor Sequence 4.0,,2025.1.1,59.981741614342035,2025-10-03 18h20.10.702074 +0530,
150,v,33,1,8,v,1,0.3895289001520723,None,8,1,33,1,,,,,82.9020408000797,,,,,82.8860559000168,82.9020408000797,83.8847580999136,83.8847580999136,83.8847580999136,83.8847580999136,83.90187350008637,84.88508610008284,84.88508610008284,85.28411599993706,v,1,0.3895289001520723,None,,,,,,,,,5,001,2025-10-03_18h20.03.261,Motor Sequence 4.0,,2025.1.1,59.981741614342035,2025-10-03 18h20.10.702074 +0530,
50,c,34,2,8,c,1,0.4273549998179078,None,8,2,34,2,,,,,85.30028670001775,,,,,85.28442519996315,85.30028670001775,86.29974790010601,86.29974790010601,86.29974790010601,86.29974790010601,86.29974790010601,87.28440949996002,87.28440949996002,87.7184864000883,c,1,0.4273549998179078,None,,,,,,,,,5,001,2025-10-03_18h20.03.261,Motor Sequence 4.0,,2025.1.1,59.981741614342035,2025-10-03 18h20.10.702074 +0530,
-150,z,35,3,8,z,1,0.5584464999847114,None,8,3,35,3,,,,,87.73430630005896,,,,,87.71896680002101,87.73430630005896,88.71766740013845,88.71766740013845,88.71766740013845,88.71766740013845,88.73433599993587,89.73408140009269,89.73408140009269,90.3004616999533,z,1,0.5584464999847114,None,,,,,,,,,5,001,2025-10-03_18h20.03.261,Motor Sequence 4.0,,2025.1.1,59.981741614342035,2025-10-03 18h20.10.702074 +0530,
-50,x,36,0,9,x,1,0.48940419987775385,None,9,0,36,0,,,,,90.31673469999805,,,,,90.30096279992722,90.31673469999805,91.2997818000149,91.2997818000149,91.2997818000149,91.2997818000149,91.3166290000081,92.30021200003102,92.30021200003102,92.80079620005563,x,1,0.48940419987775385,None,,,,,,,,,5,001,2025-10-03_18h20.03.261,Motor Sequence 4.0,,2025.1.1,59.981741614342035,2025-10-03 18h20.10.702074 +0530,
150,v,37,1,9,v,1,0.39925640006549656,None,9,1,37,1,,,,,92.81656090007164,,,,,92.8013047000859,92.81656090007164,93.81647800002247,93.81647800002247,93.81647800002247,93.81647800002247,93.81647800002247,94.81582939997315,94.81582939997315,95.21625930001028,v,1,0.39925640006549656,None,,,,,,,,,5,001,2025-10-03_18h20.03.261,Motor Sequence 4.0,,2025.1.1,59.981741614342035,2025-10-03 18h20.10.702074 +0530,
50,c,38,2,9,c,1,0.5345377998892218,None,9,2,38,2,,,,,95.23182550002821,,,,,95.21652560005896,95.23182550002821,96.21671460010111,96.21671460010111,96.21671460010111,96.21671460010111,96.23265799996443,97.21666890010238,97.21666890010238,97.76716249994934,c,1,0.5345377998892218,None,,,,,,,,,5,001,2025-10-03_18h20.03.261,Motor Sequence 4.0,,2025.1.1,59.981741614342035,2025-10-03 18h20.10.702074 +0530,
-150,z,39,3,9,z,1,0.46582370018586516,None,9,3,39,3,,,,,97.78325129998848,,,,,97.76763619994745,97.78325129998848,98.78217169991694,98.78217169991694,98.78217169991694,98.78217169991694,98.798783400096,99.78220409993082,99.78220409993082,100.25079130008817,z,1,0.46582370018586516,None,,,,,,,,,5,001,2025-10-03_18h20.03.261,Motor Sequence 4.0,,2025.1.1,59.981741614342035,2025-10-03 18h20.10.702074 +0530,
-50,x,40,0,10,x,1,0.7950170000549406,None,10,0,40,0,,,,,100.26532250014134,,,,,100.25127050001174,100.26532250014134,101.26517600007355,101.26517600007355,101.26517600007355,101.26517600007355,101.26517600007355,102.26438980014063,102.26438980014063,103.06610650010407,x,1,0.7950170000549406,None,,,,,,,,,5,001,2025-10-03_18h20.03.261,Motor Sequence 4.0,,2025.1.1,59.981741614342035,2025-10-03 18h20.10.702074 +0530,
150,v,41,1,10,v,1,0.48067549988627434,None,10,1,41,1,,,,,103.08224899997003,,,,,103.06660640006885,103.08224899997003,104.08052189997397,104.08052189997397,104.08052189997397,104.08052189997397,104.0972569999285,105.06500760000199,105.06500760000199,105.5489699000027,v,1,0.48067549988627434,None,,,,,,,,,5,001,2025-10-03_18h20.03.261,Motor Sequence 4.0,,2025.1.1,59.981741614342035,2025-10-03 18h20.10.702074 +0530,
50,c,42,2,10,c,1,2.7500277999788523,None,10,2,42,2,,,,,105.56461300002411,,,,,105.54947099997662,105.56461300002411,106.56452769995667,106.56452769995667,106.56452769995667,106.56452769995667,106.56452769995667,107.54800030007027,107.54800030007027,110.29847069992684,c,1,2.7500277999788523,None,,,,,,,,,5,001,2025-10-03_18h20.03.261,Motor Sequence 4.0,,2025.1.1,59.981741614342035,2025-10-03 18h20.10.702074 +0530,
-150,z,43,3,10,z,1,0.4858371000736952,None,10,3,43,3,,,,,110.31405579997227,,,,,110.29885590006597,110.31405579997227,111.2984209000133,111.2984209000133,111.2984209000133,111.2984209000133,111.31524139991961,112.31336169992574,112.31336169992574,112.81390459998511,z,1,0.4858371000736952,None,,,,,,,,,5,001,2025-10-03_18h20.03.261,Motor Sequence 4.0,,2025.1.1,59.981741614342035,2025-10-03 18h20.10.702074 +0530,
-50,x,44,0,11,x,1,0.5523558999411762,None,11,0,44,0,,,,,112.82981080003083,,,,,112.81418520002626,112.82981080003083,113.81416720012203,113.81416720012203,113.81416720012203,113.81416720012203,113.8310265999753,114.81340320012532,114.81340320012532,115.3804462000262,x,1,0.5523558999411762,None,,,,,,,,,5,001,2025-10-03_18h20.03.261,Motor Sequence 4.0,,2025.1.1,59.981741614342035,2025-10-03 18h20.10.702074 +0530,
150,v,45,1,11,v,1,0.4136535001453012,None,11,1,45,1,,,,,115.39636699995026,,,,,115.38096680003218,115.39636699995026,116.38023400004022,116.38023400004022,116.38023400004022,116.38023400004022,116.39718850003555,117.37964250007644,117.37964250007644,117.79709300003015,v,1,0.4136535001453012,None,,,,,,,,,5,001,2025-10-03_18h20.03.261,Motor Sequence 4.0,,2025.1.1,59.981741614342035,2025-10-03 18h20.10.702074 +0530,
50,c,46,2,11,c,1,0.6166634000837803,None,11,2,46,2,,,,,117.8134193001315,,,,,117.79787070001476,117.8134193001315,118.79671190003864,118.79671190003864,118.79671190003864,118.79671190003864,118.81351660005748,119.79711290006526,119.79711290006526,120.4306469000876,c,1,0.6166634000837803,None,,,,,,,,,5,001,2025-10-03_18h20.03.261,Motor Sequence 4.0,,2025.1.1,59.981741614342035,2025-10-03 18h20.10.702074 +0530,
-150,z,47,3,11,z,1,0.4237652001902461,None,11,3,47,3,,,,,120.44701360003091,,,,,120.43111760006286,120.44701360003091,121.44585609994829,121.44585609994829,121.44585609994829,121.44585609994829,121.46200760011561,122.44656460010447,122.44656460010447,122.88075749995187,z,1,0.4237652001902461,None,,,,,,,,,5,001,2025-10-03_18h20.03.261,Motor Sequence 4.0,,2025.1.1,59.981741614342035,2025-10-03 18h20.10.702074 +0530,
-50,x,48,0,12,x,1,0.45033909985795617,None,12,0,48,0,,,,,122.89641080005094,,,,,122.88123110006563,122.89641080005094,123.87987389997579,123.87987389997579,123.87987389997579,123.87987389997579,123.89618050004356,124.89627270004712,124.89627270004712,125.34713810007088,x,1,0.45033909985795617,None,,,,,,,,,5,001,2025-10-03_18h20.03.261,Motor Sequence 4.0,,2025.1.1,59.981741614342035,2025-10-03 18h20.10.702074 +0530,
150,v,49,1,12,v,1,0.3966807001270354,None,12,1,49,1,,,,,125.36268649995327,,,,,125.34762599994428,125.36268649995327,126.34647680004127,126.34647680004127,126.34647680004127,126.34647680004127,126.36278180009685,127.34620469994843,127.34620469994843,127.74668149999343,v,1,0.3966807001270354,None,,,,,,,,,5,001,2025-10-03_18h20.03.261,Motor Sequence 4.0,,2025.1.1,59.981741614342035,2025-10-03 18h20.10.702074 +0530,
50,c,50,2,12,c,1,0.3375208000652492,None,12,2,50,2,,,,,127.7623515999876,,,,,127.74717380013317,127.7623515999876,128.74585960013792,128.74585960013792,128.74585960013792,128.74585960013792,128.76254349993542,129.76254220004193,129.76254220004193,130.1131519000046,c,1,0.3375208000652492,None,,,,,,,,,5,001,2025-10-03_18h20.03.261,Motor Sequence 4.0,,2025.1.1,59.981741614342035,2025-10-03 18h20.10.702074 +0530,
-150,z,51,3,12,z,1,0.33198349992744625,None,12,3,51,3,,,,,130.1287446001079,,,,,130.11364070000127,130.1287446001079,131.12760449992493,131.12760449992493,131.12760449992493,131.12760449992493,131.14414769993164,132.12887430004776,132.12887430004776,132.4633496000897,z,1,0.33198349992744625,None,,,,,,,,,5,001,2025-10-03_18h20.03.261,Motor Sequence 4.0,,2025.1.1,59.981741614342035,2025-10-03 18h20.10.702074 +0530,
-50,x,52,0,13,x,1,0.5691209000069648,None,13,0,52,0,,,,,132.47841620002873,,,,,132.46387420012616,132.47841620002873,133.47853359999135,133.47853359999135,133.47853359999135,133.47853359999135,133.47853359999135,134.4777365999762,134.4777365999762,135.06137229991145,x,1,0.5691209000069648,None,,,,,,,,,5,001,2025-10-03_18h20.03.261,Motor Sequence 4.0,,2025.1.1,59.981741614342035,2025-10-03 18h20.10.702074 +0530,
150,v,53,1,13,v,1,0.4279746999964118,None,13,1,53,1,,,,,135.07748630014248,,,,,135.0618519000709,135.07748630014248,136.06095900014043,136.06095900014043,136.06095900014043,136.06095900014043,136.07808319991454,137.0613307999447,137.0613307999447,137.49493220006116,v,1,0.4279746999964118,None,,,,,,,,,5,001,2025-10-03_18h20.03.261,Motor Sequence 4.0,,2025.1.1,59.981741614342035,2025-10-03 18h20.10.702074 +0530,
50,c,54,2,13,c,1,0.5290020999964327,None,13,2,54,2,,,,,137.51088030007668,,,,,137.49541350011714,137.51088030007668,138.494151199935,138.494151199935,138.494151199935,138.494151199935,138.5110878001433,139.51073110010475,139.51073110010475,140.04334950004704,c,1,0.5290020999964327,None,,,,,,,,,5,001,2025-10-03_18h20.03.261,Motor Sequence 4.0,,2025.1.1,59.981741614342035,2025-10-03 18h20.10.702074 +0530,
-150,z,55,3,13,z,1,0.5239375000819564,None,13,3,55,3,,,,,140.05946859996766,,,,,140.043798699975,140.05946859996766,141.04425269993953,141.04425269993953,141.04425269993953,141.04425269993953,141.06102150003426,142.04333600006066,142.04333600006066,142.57728530000895,z,1,0.5239375000819564,None,,,,,,,,,5,001,2025-10-03_18h20.03.261,Motor Sequence 4.0,,2025.1.1,59.981741614342035,2025-10-03 18h20.10.702074 +0530,
-50,x,56,0,14,x,1,0.43608520017005503,None,14,0,56,0,,,,,142.59295840002596,,,,,142.57779640005901,142.59295840002596,143.57631319994107,143.57631319994107,143.57631319994107,143.57631319994107,143.59312009997666,144.57648109993897,144.57648109993897,145.0269399001263,x,1,0.43608520017005503,None,,,,,,,,,5,001,2025-10-03_18h20.03.261,Motor Sequence 4.0,,2025.1.1,59.981741614342035,2025-10-03 18h20.10.702074 +0530,
150,v,57,1,14,v,1,0.3936048001050949,None,14,1,57,1,,,,,145.04158110008575,,,,,145.02744100010023,145.04158110008575,146.02619550004601,146.02619550004601,146.02619550004601,146.02619550004601,146.04259090009145,147.026394699933,147.026394699933,147.42717780009843,v,1,0.3936048001050949,None,,,,,,,,,5,001,2025-10-03_18h20.03.261,Motor Sequence 4.0,,2025.1.1,59.981741614342035,2025-10-03 18h20.10.702074 +0530,
50,c,58,2,14,c,1,0.4222988998517394,None,14,2,58,2,,,,,147.44315579999238,,,,,147.42765250010416,147.44315579999238,148.4418689000886,148.4418689000886,148.4418689000886,148.4418689000886,148.4418689000886,149.44328629993834,149.44328629993834,149.877179000061,c,1,0.4222988998517394,None,,,,,,,,,5,001,2025-10-03_18h20.03.261,Motor Sequence 4.0,,2025.1.1,59.981741614342035,2025-10-03 18h20.10.702074 +0530,
-150,z,59,3,14,z,1,0.4332023998722434,None,14,3,59,3,,,,,149.89309239992872,,,,,149.87754649994895,149.89309239992872,150.87673239992,150.87673239992,150.87673239992,150.87673239992,150.8932749000378,151.87616190011613,151.87616190011613,152.3101397000719,z,1,0.4332023998722434,None,,,,,,,,,5,001,2025-10-03_18h20.03.261,Motor Sequence 4.0,,2025.1.1,59.981741614342035,2025-10-03 18h20.10.702074 +0530,
-50,x,60,0,15,x,1,0.35965809994377196,None,15,0,60,0,,,,,152.32559120003134,,,,,152.3106152000837,152.32559120003134,153.32608529995196,153.32608529995196,153.32608529995196,153.32608529995196,153.32608529995196,154.30926749994978,154.30926749994978,154.6766123000998,x,1,0.35965809994377196,None,,,,,,,,,5,001,2025-10-03_18h20.03.261,Motor Sequence 4.0,,2025.1.1,59.981741614342035,2025-10-03 18h20.10.702074 +0530,
150,v,61,1,15,v,1,0.39867340005002916,None,15,1,61,1,,,,,154.69279469992034,,,,,154.67709239991382,154.69279469992034,155.67601910000667,155.67601910000667,155.67601910000667,155.67601910000667,155.69317100010812,156.67573789996095,156.67573789996095,157.07583620003425,v,1,0.39867340005002916,None,,,,,,,,,5,001,2025-10-03_18h20.03.261,Motor Sequence 4.0,,2025.1.1,59.981741614342035,2025-10-03 18h20.10.702074 +0530,
50,c,62,2,15,c,1,0.6804043999873102,None,15,2,62,2,,,,,157.09221459995024,,,,,157.07630560011603,157.09221459995024,158.090855400078,158.090855400078,158.090855400078,158.090855400078,158.1074046001304,159.0753969999496,159.0753969999496,159.75932199996896,c,1,0.6804043999873102,None,,,,,,,,,5,001,2025-10-03_18h20.03.261,Motor Sequence 4.0,,2025.1.1,59.981741614342035,2025-10-03 18h20.10.702074 +0530,
-150,z,63,3,15,z,1,0.36366969998925924,None,15,3,63,3,,,,,159.77466200012714,,,,,159.75982380006462,159.77466200012714,160.7583659000229,160.7583659000229,160.7583659000229,160.7583659000229,160.77514829998836,161.75846179993823,161.75846179993823,162.12564829993062,z,1,0.36366969998925924,None,,,,,,,,,5,001,2025-10-03_18h20.03.261,Motor Sequence 4.0,,2025.1.1,59.981741614342035,2025-10-03 18h20.10.702074 +0530,
-50,x,64,0,16,x,1,0.4275195000227541,None,16,0,64,0,,,,,162.14136329991743,,,,,162.1261422999669,162.14136329991743,163.12493459996767,163.12493459996767,163.12493459996767,163.12493459996767,163.1414028001018,164.14108620001934,164.14108620001934,164.57542750006542,x,1,0.4275195000227541,None,,,,,,,,,5,001,2025-10-03_18h20.03.261,Motor Sequence 4.0,,2025.1.1,59.981741614342035,2025-10-03 18h20.10.702074 +0530,
150,v,65,1,16,v,1,0.38448650017380714,None,16,1,65,1,,,,,164.59128009993583,,,,,164.5758930000011,164.59128009993583,165.5744708001148,165.5744708001148,165.5744708001148,165.5744708001148,165.59119329997338,166.59094040002674,166.59094040002674,166.99132940010168,v,1,0.38448650017380714,None,,,,,,,,,5,001,2025-10-03_18h20.03.261,Motor Sequence 4.0,,2025.1.1,59.981741614342035,2025-10-03 18h20.10.702074 +0530,
50,c,66,2,16,c,1,0.45014810003340244,None,16,2,66,2,,,,,167.00770090008155,,,,,166.99182230001315,167.00770090008155,167.9912592000328,167.9912592000328,167.9912592000328,167.9912592000328,168.0075825001113,168.99082679999992,168.99082679999992,169.45796640007757,c,1,0.45014810003340244,None,,,,,,,,,5,001,2025-10-03_18h20.03.261,Motor Sequence 4.0,,2025.1.1,59.981741614342035,2025-10-03 18h20.10.702074 +0530,
-150,z,67,3,16,z,1,0.40045289997942746,None,16,3,67,3,,,,,169.47403839998879,,,,,169.45847430010326,169.47403839998879,170.4574124000501,170.4574124000501,170.4574124000501,170.4574124000501,170.4741583999712,171.45707660005428,171.45707660005428,171.87405059998855,z,1,0.40045289997942746,None,,,,,,,,,5,001,2025-10-03_18h20.03.261,Motor Sequence 4.0,,2025.1.1,59.981741614342035,2025-10-03 18h20.10.702074 +0530,
-50,x,68,0,17,x,1,0.47836770000867546,None,17,0,68,0,,,,,171.89064330002293,,,,,171.8745303999167,171.89064330002293,172.8730981000699,172.8730981000699,172.8730981000699,172.8730981000699,172.89024430001155,173.89033510000445,173.89033510000445,174.373177499976,x,1,0.47836770000867546,None,,,,,,,,,5,001,2025-10-03_18h20.03.261,Motor Sequence 4.0,,2025.1.1,59.981741614342035,2025-10-03 18h20.10.702074 +0530,
150,v,69,1,17,v,1,0.41297199996188283,None,17,1,69,1,,,,,174.389346400043,,,,,174.3734826000873,174.389346400043,175.38848259998485,175.38848259998485,175.38848259998485,175.38848259998485,175.40544830006547,176.37318899994716,176.37318899994716,176.79055180004798,v,1,0.41297199996188283,None,,,,,,,,,5,001,2025-10-03_18h20.03.261,Motor Sequence 4.0,,2025.1.1,59.981741614342035,2025-10-03 18h20.10.702074 +0530,
50,c,70,2,17,c,1,0.49223510012961924,None,17,2,70,2,,,,,176.80611320002936,,,,,176.79103390011005,176.80611320002936,177.78965960000642,177.78965960000642,177.78965960000642,177.78965960000642,177.80635700002313,178.80527270003222,178.80527270003222,179.30591250001453,c,1,0.49223510012961924,None,,,,,,,,,5,001,2025-10-03_18h20.03.261,Motor Sequence 4.0,,2025.1.1,59.981741614342035,2025-10-03 18h20.10.702074 +0530,
-150,z,71,3,17,z,1,0.693889900110662,None,17,3,71,3,,,,,179.32198460004292,,,,,179.3063938000705,179.32198460004292,180.30551810003817,180.30551810003817,180.30551810003817,180.30551810003817,180.3224730999209,181.30569790001027,181.30569790001027,182.00575749995187,z,1,0.693889900110662,None,,,,,,,,,5,001,2025-10-03_18h20.03.261,Motor Sequence 4.0,,2025.1.1,59.981741614342035,2025-10-03 18h20.10.702074 +0530,
-50,x,72,0,18,x,1,0.5143007999286056,None,18,0,72,0,,,,,182.02181309997104,,,,,182.00624609994702,182.02181309997104,183.00540299993008,183.00540299993008,183.00540299993008,183.00540299993008,183.02183199999854,184.00518140010536,184.00518140010536,184.52263020002283,x,1,0.5143007999286056,None,,,,,,,,,5,001,2025-10-03_18h20.03.261,Motor Sequence 4.0,,2025.1.1,59.981741614342035,2025-10-03 18h20.10.702074 +0530,
150,v,73,1,18,v,1,0.3643702999688685,None,18,1,73,1,,,,,184.53855630010366,,,,,184.5230938999448,184.53855630010366,185.5217699999921,185.5217699999921,185.5217699999921,185.5217699999921,185.53864510008134,186.521446299972,186.521446299972,186.88915450009517,v,1,0.3643702999688685,None,,,,,,,,,5,001,2025-10-03_18h20.03.261,Motor Sequence 4.0,,2025.1.1,59.981741614342035,2025-10-03 18h20.10.702074 +0530,
50,c,74,2,18,c,1,0.39269760018214583,None,18,2,74,2,,,,,186.90449630003422,,,,,186.8895803000778,186.90449630003422,187.88820030004717,187.88820030004717,187.88820030004717,187.88820030004717,187.90524370013736,188.90506249992177,188.90506249992177,189.30563899991103,c,1,0.39269760018214583,None,,,,,,,,,5,001,2025-10-03_18h20.03.261,Motor Sequence 4.0,,2025.1.1,59.981741614342035,2025-10-03 18h20.10.702074 +0530,
-150,z,75,3,18,z,1,0.4520890999119729,None,18,3,75,3,,,,,189.3207811000757,,,,,189.30613090004772,189.3207811000757,190.32164560002275,190.32164560002275,190.32164560002275,190.32164560002275,190.32164560002275,191.32144859991968,191.32144859991968,191.7887035999447,z,1,0.4520890999119729,None,,,,,,,,,5,001,2025-10-03_18h20.03.261,Motor Sequence 4.0,,2025.1.1,59.981741614342035,2025-10-03 18h20.10.702074 +0530,
-50,x,76,0,19,x,1,0.49307959992438555,None,19,0,76,0,,,,,191.80361040006392,,,,,191.7891687999945,191.80361040006392,192.78771880012937,192.78771880012937,192.78771880012937,192.78771880012937,192.80448199994862,193.78785650013015,193.78785650013015,194.28817520011216,x,1,0.49307959992438555,None,,,,,,,,,5,001,2025-10-03_18h20.03.261,Motor Sequence 4.0,,2025.1.1,59.981741614342035,2025-10-03 18h20.10.702074 +0530,
150,v,77,1,19,v,1,0.4880689000710845,None,19,1,77,1,,,,,194.30336569994688,,,,,194.2886757000815,194.30336569994688,195.28752660006285,195.28752660006285,195.28752660006285,195.28752660006285,195.3040372999385,196.30376789998263,196.30376789998263,196.80441330000758,v,1,0.4880689000710845,None,,,,,,,,,5,001,2025-10-03_18h20.03.261,Motor Sequence 4.0,,2025.1.1,59.981741614342035,2025-10-03 18h20.10.702074 +0530,
50,c,78,2,19,c,1,0.47954209987074137,None,19,2,78,2,,,,,196.8200799000915,,,,,196.8048302999232,196.8200799000915,197.80370560009032,197.80370560009032,197.80370560009032,197.80370560009032,197.82068339991383,198.80383650003932,198.80383650003932,199.28798189992085,c,1,0.47954209987074137,None,,,,,,,,,5,001,2025-10-03_18h20.03.261,Motor Sequence 4.0,,2025.1.1,59.981741614342035,2025-10-03 18h20.10.702074 +0530,
-150,z,79,3,19,z,1,0.5462347001302987,None,19,3,79,3,,,,,199.30328089999966,,,,,199.28848750004545,199.30328089999966,200.30305280000903,200.30305280000903,200.30305280000903,200.30305280000903,200.30305280000903,201.30343680013902,201.30343680013902,201.85410210001282,z,1,0.5462347001302987,None,,,,,,,,,5,001,2025-10-03_18h20.03.261,Motor Sequence 4.0,,2025.1.1,59.981741614342035,2025-10-03 18h20.10.702074 +0530,
-50,x,80,0,20,x,1,0.40872499998658895,None,20,0,80,0,,,,,201.86857190006413,,,,,201.8545641999226,201.86857190006413,202.8526673000306,202.8526673000306,202.8526673000306,202.8526673000306,202.86943359998986,203.85314969997853,203.85314969997853,204.2704738001339,x,1,0.40872499998658895,None,,,,,,,,,5,001,2025-10-03_18h20.03.261,Motor Sequence 4.0,,2025.1.1,59.981741614342035,2025-10-03 18h20.10.702074 +0530,
150,v,81,1,20,v,1,0.36644789995625615,None,20,1,81,1,,,,,204.28570570005104,,,,,204.2709562999662,204.28570570005104,205.2853727999609,205.2853727999609,205.2853727999609,205.2853727999609,205.2853727999609,206.28592450008728,206.28592450008728,206.6531837999355,v,1,0.36644789995625615,None,,,,,,,,,5,001,2025-10-03_18h20.03.261,Motor Sequence 4.0,,2025.1.1,59.981741614342035,2025-10-03 18h20.10.702074 +0530,
50,c,82,2,20,c,1,0.41022499999962747,None,20,2,82,2,,,,,206.66836820007302,,,,,206.65361210005358,206.66836820007302,207.6525324000977,207.6525324000977,207.6525324000977,207.6525324000977,207.66934769996442,208.6688866999466,208.6688866999466,209.08625750010833,c,1,0.41022499999962747,None,,,,,,,,,5,001,2025-10-03_18h20.03.261,Motor Sequence 4.0,,2025.1.1,59.981741614342035,2025-10-03 18h20.10.702074 +0530,
-150,z,83,3,20,z,1,0.44488169997930527,None,20,3,83,3,,,,,209.10117319994606,,,,,209.0867916001007,209.10117319994606,210.0855763000436,210.0855763000436,210.0855763000436,210.0855763000436,210.10231709992513,211.08577489992604,211.08577489992604,211.53571270010434,z,1,0.44488169997930527,None,,,,,,,,,5,001,2025-10-03_18h20.03.261,Motor Sequence 4.0,,2025.1.1,59.981741614342035,2025-10-03 18h20.10.702074 +0530,
-50,x,84,0,21,x,1,0.5967931998893619,None,21,0,84,0,,,,,211.55096679995768,,,,,211.53620480000973,211.55096679995768,212.5356622999534,212.5356622999534,212.5356622999534,212.5356622999534,212.5517937000841,213.53511729999445,213.53511729999445,214.13540629995987,x,1,0.5967931998893619,None,,,,,,,,,5,001,2025-10-03_18h20.03.261,Motor Sequence 4.0,,2025.1.1,59.981741614342035,2025-10-03 18h20.10.702074 +0530,
150,v,85,1,21,v,1,0.3126868999097496,None,21,1,85,1,,,,,214.15091000008397,,,,,214.1357134000864,214.15091000008397,215.13439580006525,215.13439580006525,215.13439580006525,215.13439580006525,215.1513549000956,216.1501557000447,216.1501557000447,216.46705899992958,v,1,0.3126868999097496,None,,,,,,,,,5,001,2025-10-03_18h20.03.261,Motor Sequence 4.0,,2025.1.1,59.981741614342035,2025-10-03 18h20.10.702074 +0530,
50,c,86,2,21,c,1,0.4318844999652356,None,21,2,86,2,,,,,216.4830366000533,,,,,216.46731110010296,216.4830366000533,217.46815950004384,217.46815950004384,217.46815950004384,217.46815950004384,217.4844371001236,218.46728430013172,218.46728430013172,218.9012209000066,c,1,0.4318844999652356,None,,,,,,,,,5,001,2025-10-03_18h20.03.261,Motor Sequence 4.0,,2025.1.1,59.981741614342035,2025-10-03 18h20.10.702074 +0530,
-150,z,87,3,21,z,1,0.5709801998455077,None,21,3,87,3,,,,,218.9172209999524,,,,,218.90173800010234,218.9172209999524,219.91671629995108,219.91671629995108,219.91671629995108,219.91671629995108,219.91671629995108,220.90037699998356,220.90037699998356,221.48408540012315,z,1,0.5709801998455077,None,,,,,,,,,5,001,2025-10-03_18h20.03.261,Motor Sequence 4.0,,2025.1.1,59.981741614342035,2025-10-03 18h20.10.702074 +0530,
-50,x,88,0,22,x,1,0.5542696001939476,None,22,0,88,0,,,,,221.50095629994757,,,,,221.48458599997684,221.50095629994757,222.4836749001406,222.4836749001406,222.4836749001406,222.4836749001406,222.4996633999981,223.48382720001973,223.48382720001973,224.0514595999848,x,1,0.5542696001939476,None,,,,,,,,,5,001,2025-10-03_18h20.03.261,Motor Sequence 4.0,,2025.1.1,59.981741614342035,2025-10-03 18h20.10.702074 +0530,
150,v,89,1,22,v,1,0.5008192998357117,None,22,1,89,1,,,,,224.06651689996943,,,,,224.0519344001077,224.06651689996943,225.0654430000577,225.0654430000577,225.0654430000577,225.0654430000577,225.08190930006094,226.06721010012552,226.06721010012552,226.58420279994607,v,1,0.5008192998357117,None,,,,,,,,,5,001,2025-10-03_18h20.03.261,Motor Sequence 4.0,,2025.1.1,59.981741614342035,2025-10-03 18h20.10.702074 +0530,
50,c,90,2,22,c,1,0.6753451998811215,None,22,2,90,2,,,,,226.60006490000524,,,,,226.58469699998386,226.60006490000524,227.58336080005392,227.58336080005392,227.58336080005392,227.58336080005392,227.6002663001418,228.5987694999203,228.5987694999203,229.28227970004082,c,1,0.6753451998811215,None,,,,,,,,,5,001,2025-10-03_18h20.03.261,Motor Sequence 4.0,,2025.1.1,59.981741614342035,2025-10-03 18h20.10.702074 +0530,
-150,z,91,3,22,z,1,0.4177443999797106,None,22,3,91,3,,,,,229.2984267999418,,,,,229.2825156999752,229.2984267999418,230.28236870002002,230.28236870002002,230.28236870002002,230.28236870002002,230.29964919993654,231.2828993999865,231.2828993999865,231.7172044001054,z,1,0.4177443999797106,None,,,,,,,,,5,001,2025-10-03_18h20.03.261,Motor Sequence 4.0,,2025.1.1,59.981741614342035,2025-10-03 18h20.10.702074 +0530,
-50,x,92,0,23,x,1,0.5911540000233799,None,23,0,92,0,,,,,231.73245960008353,,,,,231.71767330006696,231.73245960008353,232.71575650013983,232.71575650013983,232.71575650013983,232.71575650013983,232.73267400008626,233.71578920003958,233.71578920003958,234.31580039998516,x,1,0.5911540000233799,None,,,,,,,,,5,001,2025-10-03_18h20.03.261,Motor Sequence 4.0,,2025.1.1,59.981741614342035,2025-10-03 18h20.10.702074 +0530,
150,v,93,1,23,v,1,0.46769220009446144,None,23,1,93,1,,,,,234.33242290001363,,,,,234.3162821000442,234.33242290001363,235.3159209000878,235.3159209000878,235.3159209000878,235.3159209000878,235.33256280003116,236.31558099994436,236.31558099994436,236.79904499999247,v,1,0.46769220009446144,None,,,,,,,,,5,001,2025-10-03_18h20.03.261,Motor Sequence 4.0,,2025.1.1,59.981741614342035,2025-10-03 18h20.10.702074 +0530,
50,c,94,2,23,c,1,0.4661673998925835,None,23,2,94,2,,,,,236.81545220012777,,,,,236.799507800024,236.81545220012777,237.81493479991332,237.81493479991332,237.81493479991332,237.81493479991332,237.83088140003383,238.79873639997095,238.79873639997095,239.2657832999248,c,1,0.4661673998925835,None,,,,,,,,,5,001,2025-10-03_18h20.03.261,Motor Sequence 4.0,,2025.1.1,59.981741614342035,2025-10-03 18h20.10.702074 +0530,
-150,z,95,3,23,z,1,0.4047612000722438,None,23,3,95,3,,,,,239.28177769994363,,,,,239.26625380013138,239.28177769994363,240.265158199938,240.265158199938,240.265158199938,240.265158199938,240.2816288000904,241.2812254000455,241.2812254000455,241.69899430009536,z,1,0.4047612000722438,None,,,,,,,,,5,001,2025-10-03_18h20.03.261,Motor Sequence 4.0,,2025.1.1,59.981741614342035,2025-10-03 18h20.10.702074 +0530,
-50,x,96,0,24,x,1,0.41239800001494586,None,24,0,96,0,,,,,241.7146992001217,,,,,241.69948900002055,241.7146992001217,242.6981246001087,242.6981246001087,242.6981246001087,242.6981246001087,242.7146694001276,243.71445799991488,243.71445799991488,244.13153790007345,x,1,0.41239800001494586,None,,,,,,,,,5,001,2025-10-03_18h20.03.261,Motor Sequence 4.0,,2025.1.1,59.981741614342035,2025-10-03 18h20.10.702074 +0530,
150,v,97,1,24,v,1,0.456891099922359,None,24,1,97,1,,,,,244.1475951001048,,,,,244.13201260007918,244.1475951001048,245.13132730009966,245.13132730009966,245.13132730009966,245.13132730009966,245.14818920008838,246.13095259992406,246.13095259992406,246.712374499999,v,1,0.456891099922359,None,,,,,,,,,5,001,2025-10-03_18h20.03.261,Motor Sequence 4.0,,2025.1.1,59.981741614342035,2025-10-03 18h20.10.702074 +0530,
50,c,98,2,24,c,1,0.8951616999693215,None,24,2,98,2,,,,,246.72984950011596,,,,,246.71264829998836,246.72984950011596,247.71426409995183,247.71426409995183,247.71426409995183,247.71426409995183,247.73089580005035,248.71426560007967,248.71426560007967,249.61359750013798,c,1,0.8951616999693215,None,,,,,,,,,5,001,2025-10-03_18h20.03.261,Motor Sequence 4.0,,2025.1.1,59.981741614342035,2025-10-03 18h20.10.702074 +0530,
-150,z,99,3,24,z,1,0.4286642998922616,None,24,3,99,3,,,,,249.62906790012494,,,,,249.6139356000349,249.62906790012494,250.62898649997078,250.62898649997078,250.62898649997078,250.62898649997078,250.62898649997078,251.61351720010862,251.61351720010862,252.04737089993432,z,1,0.4286642998922616,None,,,,,,,,,5,001,2025-10-03_18h20.03.261,Motor Sequence 4.0,,2025.1.1,59.981741614342035,2025-10-03 18h20.10.702074 +0530,
50,c,0,0,0,c,1,0.5656144001986831,None,,,,,0,0,0,2,252.06347139994614,,,,,252.0560260999482,252.06347139994614,253.0470040999353,253.0470040999353,253.0470040999353,253.0470040999353,253.06365250004455,254.04677060013637,254.04677060013637,254.61397100007161,,,,,c,1,0.5656144001986831,None,,,,,5,001,2025-10-03_18h20.03.261,Motor Sequence 4.0,,2025.1.1,59.981741614342035,2025-10-03 18h20.10.702074 +0530,
-50,x,1,1,0,x,1,0.5189334999304265,None,,,,,0,1,1,0,254.6295567001216,,,,,254.61446740012616,254.6295567001216,255.62919070012867,255.62919070012867,255.62919070012867,255.62919070012867,255.62919070012867,256.62944109993987,256.62944109993987,257.16296069999225,,,,,x,1,0.5189334999304265,None,,,,,5,001,2025-10-03_18h20.03.261,Motor Sequence 4.0,,2025.1.1,59.981741614342035,2025-10-03 18h20.10.702074 +0530,
50,c,2,2,1,c,1,0.4574145001824945,None,,,,,1,2,2,2,257.1794968000613,,,,,257.1634555000346,257.1794968000613,258.17740730009973,258.17740730009973,258.17740730009973,258.17740730009973,258.17740730009973,259.1782269999385,259.1782269999385,259.6465245001018,,,,,c,1,0.4574145001824945,None,,,,,5,001,2025-10-03_18h20.03.261,Motor Sequence 4.0,,2025.1.1,59.981741614342035,2025-10-03 18h20.10.702074 +0530,
50,c,3,3,2,c,1,0.3566580999176949,None,,,,,2,3,3,2,259.6619937000796,,,,,259.6469896999188,259.6619937000796,260.6456407001242,260.6456407001242,260.6456407001242,260.6456407001242,260.66235970007256,261.64546409994364,261.64546409994364,262.0128250999842,,,,,c,1,0.3566580999176949,None,,,,,5,001,2025-10-03_18h20.03.261,Motor Sequence 4.0,,2025.1.1,59.981741614342035,2025-10-03 18h20.10.702074 +0530,
150,v,4,4,0,v,1,0.8397462998982519,None,,,,,0,4,4,1,262.0289227999747,,,,,262.0133072999306,262.0289227999747,263.0285295001231,263.0285295001231,263.0285295001231,263.0285295001231,263.0285295001231,264.0280094000045,264.0280094000045,264.87921250006184,,,,,v,1,0.8397462998982519,None,,,,,5,001,2025-10-03_18h20.03.261,Motor Sequence 4.0,,2025.1.1,59.981741614342035,2025-10-03 18h20.10.702074 +0530,
-50,x,5,5,1,x,1,0.5889041998889297,None,,,,,1,5,5,0,264.8945067001041,,,,,264.87972810002975,264.8945067001041,265.8947956999764,265.8947956999764,265.8947956999764,265.8947956999764,265.8947956999764,266.89459939999506,266.89459939999506,267.4940265000332,,,,,x,1,0.5889041998889297,None,,,,,5,001,2025-10-03_18h20.03.261,Motor Sequence 4.0,,2025.1.1,59.981741614342035,2025-10-03 18h20.10.702074 +0530,
50,c,6,6,3,c,1,0.3860360998660326,None,,,,,3,6,6,2,267.5105552999303,,,,,267.4943741001189,267.5105552999303,268.49426029995084,268.49426029995084,268.49426029995084,268.49426029995084,268.5112620999571,269.4942280999385,269.4942280999385,269.89538160013035,,,,,c,1,0.3860360998660326,None,,,,,5,001,2025-10-03_18h20.03.261,Motor Sequence 4.0,,2025.1.1,59.981741614342035,2025-10-03 18h20.10.702074 +0530,
150,v,7,7,1,v,1,0.4355572001077235,None,,,,,1,7,7,1,269.9114025000017,,,,,269.89586120005697,269.9114025000017,270.9107965999283,270.9107965999283,270.9107965999283,270.9107965999283,270.9107965999283,271.9103910000995,271.9103910000995,272.3612804999575,,,,,v,1,0.4355572001077235,None,,,,,5,001,2025-10-03_18h20.03.261,Motor Sequence 4.0,,2025.1.1,59.981741614342035,2025-10-03 18h20.10.702074 +0530,
50,c,8,8,4,c,1,0.48062759987078607,None,,,,,4,8,8,2,272.3772166001145,,,,,272.36181459994987,272.3772166001145,273.36040080012754,273.36040080012754,273.36040080012754,273.36040080012754,273.3767353000585,274.3768611999694,274.3768611999694,274.86057800007984,,,,,c,1,0.48062759987078607,None,,,,,5,001,2025-10-03_18h20.03.261,Motor Sequence 4.0,,2025.1.1,59.981741614342035,2025-10-03 18h20.10.702074 +0530,
-50,x,9,9,2,x,1,0.6886512998025864,None,,,,,2,9,9,0,274.87727880012244,,,,,274.8610483999364,274.87727880012244,275.8599296999164,275.8599296999164,275.8599296999164,275.8599296999164,275.8768631001003,276.8754453000147,276.8754453000147,277.5779965000693,,,,,x,1,0.6886512998025864,None,,,,,5,001,2025-10-03_18h20.03.261,Motor Sequence 4.0,,2025.1.1,59.981741614342035,2025-10-03 18h20.10.702074 +0530,
50,c,10,10,5,c,1,0.517857400001958,None,,,,,5,10,10,2,277.59309109998867,,,,,277.57848679996096,277.59309109998867,278.5927262001205,278.5927262001205,278.5927262001205,278.5927262001205,278.5927262001205,279.5926435000729,279.5926435000729,280.1264990000054,,,,,c,1,0.517857400001958,None,,,,,5,001,2025-10-03_18h20.03.261,Motor Sequence 4.0,,2025.1.1,59.981741614342035,2025-10-03 18h20.10.702074 +0530,
50,c,11,11,6,c,1,0.36036469996906817,None,,,,,6,11,11,2,280.14237130014226,,,,,280.12698490009643,280.14237130014226,281.12626269995235,281.12626269995235,281.12626269995235,281.12626269995235,281.14301340002567,282.12595249991864,282.12595249991864,282.49280110001564,,,,,c,1,0.36036469996906817,None,,,,,5,001,2025-10-03_18h20.03.261,Motor Sequence 4.0,,2025.1.1,59.981741614342035,2025-10-03 18h20.10.702074 +0530,
50,c,12,12,7,c,1,0.39944560010917485,None,,,,,7,12,12,2,282.50927000003867,,,,,282.49328260007314,282.50927000003867,283.49237570003606,283.49237570003606,283.49237570003606,283.49237570003606,283.5095653999597,284.4932554999832,284.4932554999832,284.90957450005226,,,,,c,1,0.39944560010917485,None,,,,,5,001,2025-10-03_18h20.03.261,Motor Sequence 4.0,,2025.1.1,59.981741614342035,2025-10-03 18h20.10.702074 +0530,
-50,x,13,13,3,x,1,0.6299959998577833,None,,,,,3,13,13,0,284.92623810004443,,,,,284.9100627999287,284.92623810004443,285.9092862000689,285.9092862000689,285.9092862000689,285.9092862000689,285.92606829991564,286.9088546000421,286.9088546000421,287.5429313001223,,,,,x,1,0.6299959998577833,None,,,,,5,001,2025-10-03_18h20.03.261,Motor Sequence 4.0,,2025.1.1,59.981741614342035,2025-10-03 18h20.10.702074 +0530,
-150,z,14,14,0,z,1,0.4841082999482751,None,,,,,0,14,14,3,287.55903710005805,,,,,287.54342840006575,287.55903710005805,288.5420109999832,288.5420109999832,288.5420109999832,288.5420109999832,288.558675999986,289.5421815000009,289.5421815000009,290.04282450000755,,,,,z,1,0.4841082999482751,None,,,,,5,001,2025-10-03_18h20.03.261,Motor Sequence 4.0,,2025.1.1,59.981741614342035,2025-10-03 18h20.10.702074 +0530,
50,c,15,15,8,c,1,0.7253594999201596,None,,,,,8,15,15,2,290.05856509995647,,,,,290.0433352999389,290.05856509995647,291.05869370000437,291.05869370000437,291.05869370000437,291.05869370000437,291.05869370000437,292.04204420000315,292.04204420000315,292.7752916000318,,,,,c,1,0.7253594999201596,None,,,,,5,001,2025-10-03_18h20.03.261,Motor Sequence 4.0,,2025.1.1,59.981741614342035,2025-10-03 18h20.10.702074 +0530,
-150,z,16,16,1,z,1,0.5966099000070244,None,,,,,1,16,16,3,292.79133579996414,,,,,292.77579850004986,292.79133579996414,293.7752235000953,293.7752235000953,293.7752235000953,293.7752235000953,293.7917045999784,294.7912419999484,294.7912419999484,295.3925533001311,,,,,z,1,0.5966099000070244,None,,,,,5,001,2025-10-03_18h20.03.261,Motor Sequence 4.0,,2025.1.1,59.981741614342035,2025-10-03 18h20.10.702074 +0530,
150,v,17,17,2,v,1,0.542169899912551,None,,,,,2,17,17,1,295.4076630999334,,,,,295.3930691999849,295.4076630999334,296.4077940999996,296.4077940999996,296.4077940999996,296.4077940999996,296.4077940999996,297.4079060999211,297.4079060999211,297.95803189999424,,,,,v,1,0.542169899912551,None,,,,,5,001,2025-10-03_18h20.03.261,Motor Sequence 4.0,,2025.1.1,59.981741614342035,2025-10-03 18h20.10.702074 +0530,
-150,z,18,18,2,z,1,0.43262779992073774,None,,,,,2,18,18,3,297.97380100004375,,,,,297.9585114000365,297.97380100004375,298.9574361999985,298.9574361999985,298.9574361999985,298.9574361999985,298.9743900001049,299.95778089994565,299.95778089994565,300.3916146000847,,,,,z,1,0.43262779992073774,None,,,,,5,001,2025-10-03_18h20.03.261,Motor Sequence 4.0,,2025.1.1,59.981741614342035,2025-10-03 18h20.10.702074 +0530,
-50,x,19,19,4,x,1,0.4346071998588741,None,,,,,4,19,19,0,300.4069483000785,,,,,300.3919875000138,300.4069483000785,301.3909404000733,301.3909404000733,301.3909404000733,301.3909404000733,301.40761150000617,302.40708009991795,302.40708009991795,302.8573425000068,,,,,x,1,0.4346071998588741,None,,,,,5,001,2025-10-03_18h20.03.261,Motor Sequence 4.0,,2025.1.1,59.981741614342035,2025-10-03 18h20.10.702074 +0530,
50,c,20,20,9,c,1,0.4420422001276165,None,,,,,9,20,20,2,302.873088600114,,,,,302.8578582999762,302.873088600114,303.85688129998744,303.85688129998744,303.85688129998744,303.85688129998744,303.8735474999994,304.8568647999782,304.8568647999782,305.30749269993976,,,,,c,1,0.4420422001276165,None,,,,,5,001,2025-10-03_18h20.03.261,Motor Sequence 4.0,,2025.1.1,59.981741614342035,2025-10-03 18h20.10.702074 +0530,
-50,x,21,21,5,x,1,0.40051859989762306,None,,,,,5,21,21,0,305.32319150003605,,,,,305.30801689997315,305.32319150003605,306.3066613001283,306.3066613001283,306.3066613001283,306.3066613001283,306.32293789996766,307.32362590008415,307.32362590008415,307.7404128999915,,,,,x,1,0.40051859989762306,None,,,,,5,001,2025-10-03_18h20.03.261,Motor Sequence 4.0,,2025.1.1,59.981741614342035,2025-10-03 18h20.10.702074 +0530,
50,c,22,22,10,c,1,0.33529670001007617,None,,,,,10,22,22,2,307.7565600001253,,,,,307.7409012001008,307.7565600001253,308.7397165999282,308.7397165999282,308.7397165999282,308.7397165999282,308.75614150008187,309.7549902999308,309.7549902999308,310.1049915999174,,,,,c,1,0.33529670001007617,None,,,,,5,001,2025-10-03_18h20.03.261,Motor Sequence 4.0,,2025.1.1,59.981741614342035,2025-10-03 18h20.10.702074 +0530,
150,v,23,23,3,v,1,0.49568270007148385,None,,,,,3,23,23,1,310.12124569993466,,,,,310.10523939994164,310.12124569993466,311.10575810004957,311.10575810004957,311.10575810004957,311.10575810004957,311.12257850007154,312.1062731000129,312.1062731000129,312.6062646000646,,,,,v,1,0.49568270007148385,None,,,,,5,001,2025-10-03_18h20.03.261,Motor Sequence 4.0,,2025.1.1,59.981741614342035,2025-10-03 18h20.10.702074 +0530,
150,v,24,24,4,v,1,0.41708719986490905,None,,,,,4,24,24,1,312.6220752000809,,,,,312.606794500025,312.6220752000809,313.605328500038,313.605328500038,313.605328500038,313.605328500038,313.6219830000773,314.6216271999292,314.6216271999292,315.0554518001154,,,,,v,1,0.41708719986490905,None,,,,,5,001,2025-10-03_18h20.03.261,Motor Sequence 4.0,,2025.1.1,59.981741614342035,2025-10-03 18h20.10.702074 +0530,
150,v,25,25,5,v,1,0.34519510017707944,None,,,,,5,25,25,1,315.071627400117,,,,,315.0559561001137,315.071627400117,316.0542345000431,316.0542345000431,316.0542345000431,316.0542345000431,316.0711745999288,317.0549030001275,317.0549030001275,317.40507550002076,,,,,v,1,0.34519510017707944,None,,,,,5,001,2025-10-03_18h20.03.261,Motor Sequence 4.0,,2025.1.1,59.981741614342035,2025-10-03 18h20.10.702074 +0530,
-150,z,26,26,3,z,1,0.40039309998974204,None,,,,,3,26,26,3,317.4215911999345,,,,,317.40585139999166,317.4215911999345,318.40486539993435,318.40486539993435,318.40486539993435,318.40486539993435,318.42102080001496,319.40491869999096,319.40491869999096,319.8217865000479,,,,,z,1,0.40039309998974204,None,,,,,5,001,2025-10-03_18h20.03.261,Motor Sequence 4.0,,2025.1.1,59.981741614342035,2025-10-03 18h20.10.702074 +0530,
-150,z,27,27,4,z,1,0.5155994999222457,None,,,,,4,27,27,3,319.8376841000281,,,,,319.82228050008416,319.8376841000281,320.82119700009935,320.82119700009935,320.82119700009935,320.82119700009935,320.8378789999988,321.8211052000988,321.8211052000988,322.3386079999618,,,,,z,1,0.5155994999222457,None,,,,,5,001,2025-10-03_18h20.03.261,Motor Sequence 4.0,,2025.1.1,59.981741614342035,2025-10-03 18h20.10.702074 +0530,
150,v,28,28,6,v,1,0.5894618998281658,None,,,,,6,28,28,1,322.3541232999414,,,,,322.3391033001244,322.3541232999414,323.3378727999516,323.3378727999516,323.3378727999516,323.3378727999516,323.35448849992827,324.3547394000925,324.3547394000925,324.9552039001137,,,,,v,1,0.5894618998281658,None,,,,,5,001,2025-10-03_18h20.03.261,Motor Sequence 4.0,,2025.1.1,59.981741614342035,2025-10-03 18h20.10.702074 +0530,
-150,z,29,29,5,z,1,0.5241962000727654,None,,,,,5,29,29,3,324.97092090011574,,,,,324.9556974999141,324.97092090011574,325.9709109000396,325.9709109000396,325.9709109000396,325.9709109000396,325.9709109000396,326.9708889001049,326.9708889001049,327.5054073999636,,,,,z,1,0.5241962000727654,None,,,,,5,001,2025-10-03_18h20.03.261,Motor Sequence 4.0,,2025.1.1,59.981741614342035,2025-10-03 18h20.10.702074 +0530,
-50,x,30,30,6,x,1,0.41599430004134774,None,,,,,6,30,30,0,327.520355500048,,,,,327.50585620012134,327.520355500048,328.52040200005285,328.52040200005285,328.52040200005285,328.52040200005285,328.52040200005285,329.52039840002544,329.52039840002544,329.9389218001161,,,,,x,1,0.41599430004134774,None,,,,,5,001,2025-10-03_18h20.03.261,Motor Sequence 4.0,,2025.1.1,59.981741614342035,2025-10-03 18h20.10.702074 +0530,
-50,x,31,31,7,x,1,0.41470189997926354,None,,,,,7,31,31,0,329.9537923000753,,,,,329.9393970000092,329.9537923000753,330.95261600008234,330.95261600008234,330.95261600008234,330.95261600008234,330.9693487000186,331.95251640002243,331.95251640002243,332.3698422999587,,,,,x,1,0.41470189997926354,None,,,,,5,001,2025-10-03_18h20.03.261,Motor Sequence 4.0,,2025.1.1,59.981741614342035,2025-10-03 18h20.10.702074 +0530,
-50,x,32,32,8,x,1,0.38978209998458624,None,,,,,8,32,32,0,332.38609150005504,,,,,332.370330600068,332.38609150005504,333.36943540000357,333.36943540000357,333.36943540000357,333.36943540000357,333.386371999979,334.3694873000495,334.3694873000495,334.770004699938,,,,,x,1,0.38978209998458624,None,,,,,5,001,2025-10-03_18h20.03.261,Motor Sequence 4.0,,2025.1.1,59.981741614342035,2025-10-03 18h20.10.702074 +0530,
-150,z,33,33,6,z,1,0.5042904999572784,None,,,,,6,33,33,3,334.78575529996306,,,,,334.77049249992706,334.78575529996306,335.7693984999787,335.7693984999787,335.7693984999787,335.7693984999787,335.786008000141,336.7859718000982,336.7859718000982,337.30307959998026,,,,,z,1,0.5042904999572784,None,,,,,5,001,2025-10-03_18h20.03.261,Motor Sequence 4.0,,2025.1.1,59.981741614342035,2025-10-03 18h20.10.702074 +0530,
-50,x,34,34,9,x,1,0.45927380002103746,None,,,,,9,34,34,0,337.31869839993306,,,,,337.3036160999909,337.31869839993306,338.3024710000027,338.3024710000027,338.3024710000027,338.3024710000027,338.3194816999603,339.3024335000664,339.3024335000664,339.7696462001186,,,,,x,1,0.45927380002103746,None,,,,,5,001,2025-10-03_18h20.03.261,Motor Sequence 4.0,,2025.1.1,59.981741614342035,2025-10-03 18h20.10.702074 +0530,
150,v,35,35,7,v,1,0.4583044000901282,None,,,,,7,35,35,1,339.78521459992044,,,,,339.7701656999998,339.78521459992044,340.7688597999513,340.7688597999513,340.7688597999513,340.7688597999513,340.7854261000175,341.785088500008,341.785088500008,342.2526686999481,,,,,v,1,0.4583044000901282,None,,,,,5,001,2025-10-03_18h20.03.261,Motor Sequence 4.0,,2025.1.1,59.981741614342035,2025-10-03 18h20.10.702074 +0530,
150,v,36,36,8,v,1,0.5318539999425411,None,,,,,8,36,36,1,342.26832940010354,,,,,342.2532111001201,342.26832940010354,343.25178200006485,343.25178200006485,343.25178200006485,343.25178200006485,343.2686274999287,344.2520020001102,344.2520020001102,344.78567020012997,,,,,v,1,0.5318539999425411,None,,,,,5,001,2025-10-03_18h20.03.261,Motor Sequence 4.0,,2025.1.1,59.981741614342035,2025-10-03 18h20.10.702074 +0530,
-50,x,37,37,10,c,0,0.5139427999965847,None,,,,,10,37,37,0,344.80132979992777,,,,,344.7861570001114,344.80132979992777,345.78497339994647,345.78497339994647,345.78497339994647,345.78497339994647,345.8018461000174,346.80161710013635,346.80161710013635,347.3181887001265,,,,,c,0,0.5139427999965847,None,,,,,5,001,2025-10-03_18h20.03.261,Motor Sequence 4.0,,2025.1.1,59.981741614342035,2025-10-03 18h20.10.702074 +0530,
-50,x,38,38,11,x,1,0.4685044998768717,None,,,,,11,38,38,0,347.3342937999405,,,,,347.3187168999575,347.3342937999405,348.31813849997707,348.31813849997707,348.31813849997707,348.31813849997707,348.3345461001154,349.3178707000334,349.3178707000334,349.8009514999576,,,,,x,1,0.4685044998768717,None,,,,,5,001,2025-10-03_18h20.03.261,Motor Sequence 4.0,,2025.1.1,59.981741614342035,2025-10-03 18h20.10.702074 +0530,
-50,x,39,39,12,x,1,0.7083160001784563,None,,,,,12,39,39,0,349.81657980009913,,,,,349.80120670003816,349.81657980009913,350.80104920011945,350.80104920011945,350.80104920011945,350.80104920011945,350.81763379997574,351.8005333999172,351.8005333999172,352.51790370000526,,,,,x,1,0.7083160001784563,None,,,,,5,001,2025-10-03_18h20.03.261,Motor Sequence 4.0,,2025.1.1,59.981741614342035,2025-10-03 18h20.10.702074 +0530,
150,v,40,40,9,v,1,0.5337205999530852,None,,,,,9,40,40,1,352.5341640000697,,,,,352.5183932001237,352.5341640000697,353.5173698000144,353.5173698000144,353.5173698000144,353.5173698000144,353.533690799959,354.51723140012473,354.51723140012473,355.0670080999844,,,,,v,1,0.5337205999530852,None,,,,,5,001,2025-10-03_18h20.03.261,Motor Sequence 4.0,,2025.1.1,59.981741614342035,2025-10-03 18h20.10.702074 +0530,
50,c,41,41,11,c,1,0.5949603000190109,None,,,,,11,41,41,2,355.0830071999226,,,,,355.0674926000647,355.0830071999226,356.06651200004853,356.06651200004853,356.06651200004853,356.06651200004853,356.0828370000236,357.0666183999274,357.0666183999274,357.66669830004685,,,,,c,1,0.5949603000190109,None,,,,,5,001,2025-10-03_18h20.03.261,Motor Sequence 4.0,,2025.1.1,59.981741614342035,2025-10-03 18h20.10.702074 +0530,
-150,z,42,42,7,z,1,0.43251900002360344,None,,,,,7,42,42,3,357.6827676000539,,,,,357.6671917999629,357.6827676000539,358.66634969995357,358.66634969995357,358.66634969995357,358.66634969995357,358.6827654999215,359.66631380002946,359.66631380002946,360.1013692000415,,,,,z,1,0.43251900002360344,None,,,,,5,001,2025-10-03_18h20.03.261,Motor Sequence 4.0,,2025.1.1,59.981741614342035,2025-10-03 18h20.10.702074 +0530,
150,v,43,43,10,v,1,0.39895029994659126,None,,,,,10,43,43,1,360.1161174001172,,,,,360.101840400137,360.1161174001172,361.1162660000846,361.1162660000846,361.1162660000846,361.1162660000846,361.1162660000846,362.1156109001022,362.1156109001022,362.51719089993276,,,,,v,1,0.39895029994659126,None,,,,,5,001,2025-10-03_18h20.03.261,Motor Sequence 4.0,,2025.1.1,59.981741614342035,2025-10-03 18h20.10.702074 +0530,
-150,z,44,44,8,z,1,0.5589689000044018,None,,,,,8,44,44,3,362.53264539991505,,,,,362.51766110002063,362.53264539991505,363.5330767999403,363.5330767999403,363.5330767999403,363.5330767999403,363.5330767999403,364.532579400111,364.532579400111,365.10007730009966,,,,,z,1,0.5589689000044018,None,,,,,5,001,2025-10-03_18h20.03.261,Motor Sequence 4.0,,2025.1.1,59.981741614342035,2025-10-03 18h20.10.702074 +0530,
150,v,45,45,11,v,1,0.44826520001515746,None,,,,,11,45,45,1,365.11603090004064,,,,,365.1005577999167,365.11603090004064,366.09902089997195,366.09902089997195,366.09902089997195,366.09902089997195,366.11572190001607,367.0991364000365,367.0991364000365,367.55000229994766,,,,,v,1,0.44826520001515746,None,,,,,5,001,2025-10-03_18h20.03.261,Motor Sequence 4.0,,2025.1.1,59.981741614342035,2025-10-03 18h20.10.702074 +0530,
-150,z,46,46,9,z,1,0.4281969000585377,None,,,,,9,46,46,3,367.5655406001024,,,,,367.55049729999155,367.5655406001024,368.5654055001214,368.5654055001214,368.5654055001214,368.5654055001214,368.5654055001214,369.5658068000339,369.5658068000339,369.99903089995496,,,,,z,1,0.4281969000585377,None,,,,,5,001,2025-10-03_18h20.03.261,Motor Sequence 4.0,,2025.1.1,59.981741614342035,2025-10-03 18h20.10.702074 +0530,
150,v,47,47,12,v,1,0.4810169998090714,None,,,,,12,47,47,1,370.0151373001281,,,,,369.99954039999284,370.0151373001281,371.01411029999144,371.01411029999144,371.01411029999144,371.01411029999144,371.0304594999179,371.99831850011833,371.99831850011833,372.4820670001209,,,,,v,1,0.4810169998090714,None,,,,,5,001,2025-10-03_18h20.03.261,Motor Sequence 4.0,,2025.1.1,59.981741614342035,2025-10-03 18h20.10.702074 +0530,
-50,x,48,48,13,x,1,0.5047033000737429,None,,,,,13,48,48,0,372.49802480009384,,,,,372.4825746999122,372.49802480009384,373.4816866000183,373.4816866000183,373.4816866000183,373.4816866000183,373.49811429996043,374.48135909996927,374.48135909996927,374.998799999943,,,,,x,1,0.5047033000737429,None,,,,,5,001,2025-10-03_18h20.03.261,Motor Sequence 4.0,,2025.1.1,59.981741614342035,2025-10-03 18h20.10.702074 +0530,
50,c,49,49,12,c,1,0.9177711999509484,None,,,,,12,49,49,2,375.01476819999516,,,,,374.99926920002326,375.01476819999516,376.01456360006705,376.01456360006705,376.01456360006705,376.01456360006705,376.01456360006705,377.0145638999529,377.0145638999529,377.9481397999916,,,,,c,1,0.9177711999509484,None,,,,,5,001,2025-10-03_18h20.03.261,Motor Sequence 4.0,,2025.1.1,59.981741614342035,2025-10-03 18h20.10.702074 +0530,
150,v,50,50,13,v,1,0.5361585998907685,None,,,,,13,50,50,1,377.9637645999901,,,,,377.9486068999395,377.9637645999901,378.9472884000279,378.9472884000279,378.9472884000279,378.9472884000279,378.9641967001371,379.9625305000227,379.9625305000227,380.51450180006213,,,,,v,1,0.5361585998907685,None,,,,,5,001,2025-10-03_18h20.03.261,Motor Sequence 4.0,,2025.1.1,59.981741614342035,2025-10-03 18h20.10.702074 +0530,
150,v,51,51,14,v,1,0.43474490009248257,None,,,,,14,51,51,1,380.53008590009995,,,,,380.5149918999523,380.53008590009995,381.5137881000992,381.5137881000992,381.5137881000992,381.5137881000992,381.53054559999146,382.5303662000224,382.5303662000224,382.9804219000507,,,,,v,1,0.43474490009248257,None,,,,,5,001,2025-10-03_18h20.03.261,Motor Sequence 4.0,,2025.1.1,59.981741614342035,2025-10-03 18h20.10.702074 +0530,
150,v,52,52,15,v,1,0.40531199984252453,None,,,,,15,52,52,1,382.99591640010476,,,,,382.9808978999499,382.99591640010476,383.9962369001005,383.9962369001005,383.9962369001005,383.9962369001005,383.9962369001005,384.99675550009124,384.99675550009124,385.4130555000156,,,,,v,1,0.40531199984252453,None,,,,,5,001,2025-10-03_18h20.03.261,Motor Sequence 4.0,,2025.1.1,59.981741614342035,2025-10-03 18h20.10.702074 +0530,
50,c,53,53,13,c,1,0.38997010001912713,None,,,,,13,53,53,2,385.4293126000557,,,,,385.4135477999225,385.4293126000557,386.41316880006343,386.41316880006343,386.41316880006343,386.41316880006343,386.42945139994845,387.41267720004544,387.41267720004544,387.8128953000996,,,,,c,1,0.38997010001912713,None,,,,,5,001,2025-10-03_18h20.03.261,Motor Sequence 4.0,,2025.1.1,59.981741614342035,2025-10-03 18h20.10.702074 +0530,
150,v,54,54,16,v,1,0.42665449995547533,None,,,,,16,54,54,1,387.8288237999659,,,,,387.8133922999259,387.8288237999659,388.81252730009146,388.81252730009146,388.81252730009146,388.81252730009146,388.82900690007955,389.81228590011597,389.81228590011597,390.24627500004135,,,,,v,1,0.42665449995547533,None,,,,,5,001,2025-10-03_18h20.03.261,Motor Sequence 4.0,,2025.1.1,59.981741614342035,2025-10-03 18h20.10.702074 +0530,
50,c,55,55,14,c,1,0.32947039999999106,None,,,,,14,55,55,2,390.26247130008414,,,,,390.24677899992093,390.26247130008414,391.2456054999493,391.2456054999493,391.2456054999493,391.2456054999493,391.2628300001379,392.24578440003097,392.24578440003097,392.57954220008105,,,,,c,1,0.32947039999999106,None,,,,,5,001,2025-10-03_18h20.03.261,Motor Sequence 4.0,,2025.1.1,59.981741614342035,2025-10-03 18h20.10.702074 +0530,
-50,x,56,56,14,x,1,0.4793191000353545,None,,,,,14,56,56,0,392.5955062001012,,,,,392.58001490007155,392.5955062001012,393.5788185999263,393.5788185999263,393.5788185999263,393.5788185999263,393.5955193999689,394.57895800005645,394.57895800005645,395.0625650999136,,,,,x,1,0.4793191000353545,None,,,,,5,001,2025-10-03_18h20.03.261,Motor Sequence 4.0,,2025.1.1,59.981741614342035,2025-10-03 18h20.10.702074 +0530,
-50,x,57,57,15,x,1,0.5165822999551892,None,,,,,15,57,57,0,395.07813649997115,,,,,395.0630455999635,395.07813649997115,396.0617345001083,396.0617345001083,396.0617345001083,396.0617345001083,396.0786288001109,397.0614058000501,397.0614058000501,397.57890129997395,,,,,x,1,0.5165822999551892,None,,,,,5,001,2025-10-03_18h20.03.261,Motor Sequence 4.0,,2025.1.1,59.981741614342035,2025-10-03 18h20.10.702074 +0530,
-50,x,58,58,16,x,1,0.4097447998356074,None,,,,,16,58,58,0,397.5945677999407,,,,,397.57938200002536,397.5945677999407,398.57816500007175,398.57816500007175,398.57816500007175,398.57816500007175,398.59472920000553,399.5948803999927,399.5948803999927,400.01182970008813,,,,,x,1,0.4097447998356074,None,,,,,5,001,2025-10-03_18h20.03.261,Motor Sequence 4.0,,2025.1.1,59.981741614342035,2025-10-03 18h20.10.702074 +0530,
150,v,59,59,17,v,1,0.5401468998752534,None,,,,,17,59,59,1,400.0271338999737,,,,,400.0122694000602,400.0271338999737,401.0114565999247,401.0114565999247,401.0114565999247,401.0114565999247,401.02762380009517,402.01124639995396,402.01124639995396,402.5618390000891,,,,,v,1,0.5401468998752534,None,,,,,5,001,2025-10-03_18h20.03.261,Motor Sequence 4.0,,2025.1.1,59.981741614342035,2025-10-03 18h20.10.702074 +0530,
-150,z,60,60,10,x,0,0.4509962999727577,None,,,,,10,60,60,3,402.5776391001418,,,,,402.56232500006445,402.5776391001418,403.5607654999476,403.5607654999476,403.5607654999476,403.5607654999476,403.5771286999807,404.5608860999346,404.5608860999346,405.02831199998036,,,,,x,0,0.4509962999727577,None,,,,,5,001,2025-10-03_18h20.03.261,Motor Sequence 4.0,,2025.1.1,59.981741614342035,2025-10-03 18h20.10.702074 +0530,
50,c,61,61,15,c,1,0.6295080001000315,None,,,,,15,61,61,2,405.044039899949,,,,,405.0288227999117,405.044039899949,406.04368890007026,406.04368890007026,406.04368890007026,406.04368890007026,406.04368890007026,407.04412560001947,407.04412560001947,407.67796400003135,,,,,c,1,0.6295080001000315,None,,,,,5,001,2025-10-03_18h20.03.261,Motor Sequence 4.0,,2025.1.1,59.981741614342035,2025-10-03 18h20.10.702074 +0530,
-50,x,62,62,17,x,1,0.4569288999773562,None,,,,,17,62,62,0,407.6939493000973,,,,,407.6784793001134,407.6939493000973,408.67678879993036,408.67678879993036,408.67678879993036,408.67678879993036,408.69365469994955,409.6935618999414,409.6935618999414,410.1608176000882,,,,,x,1,0.4569288999773562,None,,,,,5,001,2025-10-03_18h20.03.261,Motor Sequence 4.0,,2025.1.1,59.981741614342035,2025-10-03 18h20.10.702074 +0530,
150,v,63,63,18,v,1,0.45466009993106127,None,,,,,18,63,63,1,410.1767967999913,,,,,410.16132940002717,410.1767967999913,411.1767251000274,411.1767251000274,411.1767251000274,411.1767251000274,411.1767251000274,412.17688119993545,412.17688119993545,412.64387160004117,,,,,v,1,0.45466009993106127,None,,,,,5,001,2025-10-03_18h20.03.261,Motor Sequence 4.0,,2025.1.1,59.981741614342035,2025-10-03 18h20.10.702074 +0530,
50,c,64,64,16,c,1,0.4486525999382138,None,,,,,16,64,64,2,412.65999700012617,,,,,412.6443610000424,412.65999700012617,413.6432161000557,413.6432161000557,413.6432161000557,413.6432161000557,413.65997239993885,414.65969280013815,414.65969280013815,415.1107377000153,,,,,c,1,0.4486525999382138,None,,,,,5,001,2025-10-03_18h20.03.261,Motor Sequence 4.0,,2025.1.1,59.981741614342035,2025-10-03 18h20.10.702074 +0530,
50,c,65,65,17,c,1,0.36763989995233715,None,,,,,17,65,65,2,415.1260220000986,,,,,415.111226900015,415.1260220000986,416.12617040006444,416.12617040006444,416.12617040006444,416.12617040006444,416.12617040006444,417.1257716000546,417.1257716000546,417.5099007000681,,,,,c,1,0.36763989995233715,None,,,,,5,001,2025-10-03_18h20.03.261,Motor Sequence 4.0,,2025.1.1,59.981741614342035,2025-10-03 18h20.10.702074 +0530,
-50,x,66,66,18,x,1,0.6068776999600232,None,,,,,18,66,66,0,417.52597049996257,,,,,417.5103331999853,417.52597049996257,418.50927129993215,418.50927129993215,418.50927129993215,418.50927129993215,418.52591930003837,419.5087729000952,419.5087729000952,420.1262417000253,,,,,x,1,0.6068776999600232,None,,,,,5,001,2025-10-03_18h20.03.261,Motor Sequence 4.0,,2025.1.1,59.981741614342035,2025-10-03 18h20.10.702074 +0530,
50,c,67,67,18,c,1,0.3657865999266505,None,,,,,18,67,67,2,420.14168570004404,,,,,420.1267407000996,420.14168570004404,421.12528600008227,421.12528600008227,421.12528600008227,421.12528600008227,421.141848300118,422.1253033000976,422.1253033000976,422.49258820014074,,,,,c,1,0.3657865999266505,None,,,,,5,001,2025-10-03_18h20.03.261,Motor Sequence 4.0,,2025.1.1,59.981741614342035,2025-10-03 18h20.10.702074 +0530,
150,v,68,68,19,v,1,0.42980369995348155,None,,,,,19,68,68,1,422.50870650005527,,,,,422.49308030004613,422.50870650005527,423.4917413999792,423.4917413999792,423.4917413999792,423.4917413999792,423.5082433000207,424.50816500000656,424.50816500000656,424.94253730005585,,,,,v,1,0.42980369995348155,None,,,,,5,001,2025-10-03_18h20.03.261,Motor Sequence 4.0,,2025.1.1,59.981741614342035,2025-10-03 18h20.10.702074 +0530,
-150,z,69,69,11,z,1,0.5713837000075728,None,,,,,11,69,69,3,424.9575738001149,,,,,424.9430098000448,424.9575738001149,425.95805360004306,425.95805360004306,425.95805360004306,425.95805360004306,425.95805360004306,426.95817010011524,426.95817010011524,427.54183280002326,,,,,z,1,0.5713837000075728,None,,,,,5,001,2025-10-03_18h20.03.261,Motor Sequence 4.0,,2025.1.1,59.981741614342035,2025-10-03 18h20.10.702074 +0530,
50,c,70,70,19,c,1,0.7049428999889642,None,,,,,19,70,70,2,427.5580690000206,,,,,427.54233580012806,427.5580690000206,428.54090710007586,428.54090710007586,428.54090710007586,428.54090710007586,428.55779520003125,429.54117000009865,429.54117000009865,430.2584021000657,,,,,c,1,0.7049428999889642,None,,,,,5,001,2025-10-03_18h20.03.261,Motor Sequence 4.0,,2025.1.1,59.981741614342035,2025-10-03 18h20.10.702074 +0530,
-150,z,71,71,12,z,1,0.449130600085482,None,,,,,12,71,71,3,430.27407589997165,,,,,430.25891220010817,430.27407589997165,431.2740603000857,431.2740603000857,431.2740603000857,431.2740603000857,431.2740603000857,432.2573782999534,432.2573782999534,432.70785899995826,,,,,z,1,0.449130600085482,None,,,,,5,001,2025-10-03_18h20.03.261,Motor Sequence 4.0,,2025.1.1,59.981741614342035,2025-10-03 18h20.10.702074 +0530,
-150,z,72,72,13,z,1,0.5655310000292957,None,,,,,13,72,72,3,432.72379580000415,,,,,432.708341000136,432.72379580000415,433.7072908000555,433.7072908000555,433.7072908000555,433.7072908000555,433.72382969991304,434.7072974999901,434.7072974999901,435.2738050001208,,,,,z,1,0.5655310000292957,None,,,,,5,001,2025-10-03_18h20.03.261,Motor Sequence 4.0,,2025.1.1,59.981741614342035,2025-10-03 18h20.10.702074 +0530,
-50,x,73,73,19,x,1,0.6266512000001967,None,,,,,19,73,73,0,435.29014930012636,,,,,435.27430670009926,435.29014930012636,436.27376849995926,436.27376849995926,436.27376849995926,436.27376849995926,436.29010679991916,437.2729909999762,437.2729909999762,437.90709049999714,,,,,x,1,0.6266512000001967,None,,,,,5,001,2025-10-03_18h20.03.261,Motor Sequence 4.0,,2025.1.1,59.981741614342035,2025-10-03 18h20.10.702074 +0530,
50,c,74,74,20,c,1,0.6097465998027474,None,,,,,20,74,74,2,437.92313349992037,,,,,437.9075798999984,437.92313349992037,438.9062612000853,438.9062612000853,438.9062612000853,438.9062612000853,438.92291700001806,439.9068692000583,439.9068692000583,440.52332839998417,,,,,c,1,0.6097465998027474,None,,,,,5,001,2025-10-03_18h20.03.261,Motor Sequence 4.0,,2025.1.1,59.981741614342035,2025-10-03 18h20.10.702074 +0530,
-50,x,75,75,20,c,0,0.7345841999631375,None,,,,,20,75,75,0,440.53981159999967,,,,,440.5238348999992,440.53981159999967,441.52283690008335,441.52283690008335,441.52283690008335,441.52283690008335,441.5394023999106,442.52261590003036,442.52261590003036,443.2731739000883,,,,,c,0,0.7345841999631375,None,,,,,5,001,2025-10-03_18h20.03.261,Motor Sequence 4.0,,2025.1.1,59.981741614342035,2025-10-03 18h20.10.702074 +0530,
150,v,76,76,20,v,1,0.42173300008289516,None,,,,,20,76,76,1,443.28865749994293,,,,,443.27367069991305,443.28865749994293,444.2726495000534,444.2726495000534,444.2726495000534,444.2726495000534,444.2891321000643,445.2723634999711,445.2723634999711,445.7064652000554,,,,,v,1,0.42173300008289516,None,,,,,5,001,2025-10-03_18h20.03.261,Motor Sequence 4.0,,2025.1.1,59.981741614342035,2025-10-03 18h20.10.702074 +0530,
-150,z,77,77,14,z,1,0.5455495999194682,None,,,,,14,77,77,3,445.7220284000505,,,,,445.70698249991983,445.7220284000505,446.7223628000356,446.7223628000356,446.7223628000356,446.7223628000356,446.7223628000356,447.72199050011113,447.72199050011113,448.2722764001228,,,,,z,1,0.5455495999194682,None,,,,,5,001,2025-10-03_18h20.03.261,Motor Sequence 4.0,,2025.1.1,59.981741614342035,2025-10-03 18h20.10.702074 +0530,
-150,z,78,78,15,z,1,0.4394346000626683,None,,,,,15,78,78,3,448.2884547000285,,,,,448.272790200077,448.2884547000285,449.27171060000546,449.27171060000546,449.27171060000546,449.27171060000546,449.2882272999268,450.27190209995024,450.27190209995024,450.7226136000827,,,,,z,1,0.4394346000626683,None,,,,,5,001,2025-10-03_18h20.03.261,Motor Sequence 4.0,,2025.1.1,59.981741614342035,2025-10-03 18h20.10.702074 +0530,
-50,x,79,79,21,x,1,0.9496911999303848,None,,,,,21,79,79,0,450.7381879000459,,,,,450.7230980999302,450.7381879000459,451.7215287000872,451.7215287000872,451.7215287000872,451.7215287000872,451.73819370009005,452.738236800069,452.738236800069,453.6885512000881,,,,,x,1,0.9496911999303848,None,,,,,5,001,2025-10-03_18h20.03.261,Motor Sequence 4.0,,2025.1.1,59.981741614342035,2025-10-03 18h20.10.702074 +0530,
150,v,80,80,21,v,1,0.4427555000875145,None,,,,,21,80,80,1,453.7044136999175,,,,,453.68904300010763,453.7044136999175,454.7047319000121,454.7047319000121,454.7047319000121,454.7047319000121,454.7047319000121,455.68769029993564,455.68769029993564,456.1383519000374,,,,,v,1,0.4427555000875145,None,,,,,5,001,2025-10-03_18h20.03.261,Motor Sequence 4.0,,2025.1.1,59.981741614342035,2025-10-03 18h20.10.702074 +0530,
-150,z,81,81,16,z,1,0.503145300084725,None,,,,,16,81,81,3,456.15409470000304,,,,,456.13882260001265,456.15409470000304,457.13785029994324,457.13785029994324,457.13785029994324,457.13785029994324,457.15389550011605,458.13737939996645,458.13737939996645,458.6547753000632,,,,,z,1,0.503145300084725,None,,,,,5,001,2025-10-03_18h20.03.261,Motor Sequence 4.0,,2025.1.1,59.981741614342035,2025-10-03 18h20.10.702074 +0530,
-150,z,82,82,17,z,1,0.5165295999031514,None,,,,,17,82,82,3,458.6705132999923,,,,,458.65524350013584,458.6705132999923,459.6538730999455,459.6538730999455,459.6538730999455,459.6538730999455,459.67049770010635,460.6702390999999,460.6702390999999,461.187428599922,,,,,z,1,0.5165295999031514,None,,,,,5,001,2025-10-03_18h20.03.261,Motor Sequence 4.0,,2025.1.1,59.981741614342035,2025-10-03 18h20.10.702074 +0530,
50,c,83,83,21,c,1,0.7071607999969274,None,,,,,21,83,83,2,461.2033613000531,,,,,461.1879147000145,461.2033613000531,462.18711520009674,462.18711520009674,462.18711520009674,462.18711520009674,462.2036023000255,463.18640500004403,463.18640500004403,463.9040542000439,,,,,c,1,0.7071607999969274,None,,,,,5,001,2025-10-03_18h20.03.261,Motor Sequence 4.0,,2025.1.1,59.981741614342035,2025-10-03 18h20.10.702074 +0530,
-50,x,84,84,22,x,1,0.892070900183171,None,,,,,22,84,84,0,463.91975539992563,,,,,463.90454820008017,463.91975539992563,464.91962040006183,464.91962040006183,464.91962040006183,464.91962040006183,464.91962040006183,465.90322590013966,465.90322590013966,466.80365679995157,,,,,x,1,0.892070900183171,None,,,,,5,001,2025-10-03_18h20.03.261,Motor Sequence 4.0,,2025.1.1,59.981741614342035,2025-10-03 18h20.10.702074 +0530,
150,v,85,85,22,v,1,0.48826050013303757,None,,,,,22,85,85,1,466.8189741000533,,,,,466.80412849993445,466.8189741000533,467.8195921999868,467.8195921999868,467.8195921999868,467.8195921999868,467.8195921999868,468.80269149993546,468.80269149993546,469.3033837999683,,,,,v,1,0.48826050013303757,None,,,,,5,001,2025-10-03_18h20.03.261,Motor Sequence 4.0,,2025.1.1,59.981741614342035,2025-10-03 18h20.10.702074 +0530,
150,v,86,86,23,v,1,0.42982210009358823,None,,,,,23,86,86,1,469.3189952999819,,,,,469.30388109991327,469.3189952999819,470.3020731001161,470.3020731001161,470.3020731001161,470.3020731001161,470.3192962000612,471.302551999921,471.302551999921,471.7366154999472,,,,,v,1,0.42982210009358823,None,,,,,5,001,2025-10-03_18h20.03.261,Motor Sequence 4.0,,2025.1.1,59.981741614342035,2025-10-03 18h20.10.702074 +0530,
50,c,87,87,22,c,1,0.43782250001095235,None,,,,,22,87,87,2,471.75208090012893,,,,,471.73711460013874,471.75208090012893,472.7522194001358,472.7522194001358,472.7522194001358,472.7522194001358,472.7522194001358,473.75183920003474,473.75183920003474,474.2030807000119,,,,,c,1,0.43782250001095235,None,,,,,5,001,2025-10-03_18h20.03.261,Motor Sequence 4.0,,2025.1.1,59.981741614342035,2025-10-03 18h20.10.702074 +0530,
-50,x,88,88,23,x,1,0.5771788000129163,None,,,,,23,88,88,0,474.21837530005723,,,,,474.2035934999585,474.21837530005723,475.2186431000009,475.2186431000009,475.2186431000009,475.2186431000009,475.2186431000009,476.21839309995994,476.21839309995994,476.8020037000533,,,,,x,1,0.5771788000129163,None,,,,,5,001,2025-10-03_18h20.03.261,Motor Sequence 4.0,,2025.1.1,59.981741614342035,2025-10-03 18h20.10.702074 +0530,
-50,x,89,89,24,x,1,0.4346404999960214,None,,,,,24,89,89,0,476.8175794999115,,,,,476.8025434000883,476.8175794999115,477.801547100069,477.801547100069,477.801547100069,477.801547100069,477.8186266999692,478.8015101000201,478.8015101000201,479.2518925999757,,,,,x,1,0.4346404999960214,None,,,,,5,001,2025-10-03_18h20.03.261,Motor Sequence 4.0,,2025.1.1,59.981741614342035,2025-10-03 18h20.10.702074 +0530,
-150,z,90,90,18,z,1,0.5219127000309527,None,,,,,18,90,90,3,479.2681861000601,,,,,479.25237450003624,479.2681861000601,480.25111970002763,480.25111970002763,480.25111970002763,480.25111970002763,480.2681911000982,481.25100690010004,481.25100690010004,481.78479099995457,,,,,z,1,0.5219127000309527,None,,,,,5,001,2025-10-03_18h20.03.261,Motor Sequence 4.0,,2025.1.1,59.981741614342035,2025-10-03 18h20.10.702074 +0530,
-150,z,91,91,19,z,1,0.560778200160712,None,,,,,19,91,91,3,481.80117410002276,,,,,481.7852737000212,481.80117410002276,482.78426540014334,482.78426540014334,482.78426540014334,482.78426540014334,482.8007646999322,483.7842797001358,483.7842797001358,484.351508700056,,,,,z,1,0.560778200160712,None,,,,,5,001,2025-10-03_18h20.03.261,Motor Sequence 4.0,,2025.1.1,59.981741614342035,2025-10-03 18h20.10.702074 +0530,
-150,z,92,92,20,z,1,0.49477069987915456,None,,,,,20,92,92,3,484.36737619992346,,,,,484.3519967000466,484.36737619992346,485.3506837999448,485.3506837999448,485.3506837999448,485.3506837999448,485.366867700126,486.3668124000542,486.3668124000542,486.8676142001059,,,,,z,1,0.49477069987915456,None,,,,,5,001,2025-10-03_18h20.03.261,Motor Sequence 4.0,,2025.1.1,59.981741614342035,2025-10-03 18h20.10.702074 +0530,
-150,z,93,93,21,z,1,0.4502212998922914,None,,,,,21,93,93,3,486.8836928999517,,,,,486.8680960999336,486.8836928999517,487.86661150003783,487.86661150003783,487.86661150003783,487.86661150003783,487.8838389001321,488.866690200055,488.866690200055,489.31757299997844,,,,,z,1,0.4502212998922914,None,,,,,5,001,2025-10-03_18h20.03.261,Motor Sequence 4.0,,2025.1.1,59.981741614342035,2025-10-03 18h20.10.702074 +0530,
-150,z,94,94,22,z,1,0.42168970010243356,None,,,,,22,94,94,3,489.3333664999809,,,,,489.3180696000345,489.3333664999809,490.31683690007776,490.31683690007776,490.31683690007776,490.31683690007776,490.3334626001306,491.3165512001142,491.3165512001142,491.75026090000756,,,,,z,1,0.42168970010243356,None,,,,,5,001,2025-10-03_18h20.03.261,Motor Sequence 4.0,,2025.1.1,59.981741614342035,2025-10-03 18h20.10.702074 +0530,
-150,z,95,95,23,z,1,0.43129879981279373,None,,,,,23,95,95,3,491.7663054000586,,,,,491.7507821000181,491.7663054000586,492.7664318999741,492.7664318999741,492.7664318999741,492.7664318999741,492.7664318999741,493.74952120007947,493.74952120007947,494.1833945000544,,,,,z,1,0.43129879981279373,None,,,,,5,001,2025-10-03_18h20.03.261,Motor Sequence 4.0,,2025.1.1,59.981741614342035,2025-10-03 18h20.10.702074 +0530,
50,c,96,96,23,c,1,0.6940257998649031,None,,,,,23,96,96,2,494.1989372000098,,,,,494.18387750000693,494.1989372000098,495.1826323000714,495.1826323000714,495.1826323000714,495.1826323000714,495.1993712000549,496.18245630012825,496.18245630012825,496.88360720011406,,,,,c,1,0.6940257998649031,None,,,,,5,001,2025-10-03_18h20.03.261,Motor Sequence 4.0,,2025.1.1,59.981741614342035,2025-10-03 18h20.10.702074 +0530,
-150,z,97,97,24,z,1,0.39583589998073876,None,,,,,24,97,97,3,496.89891260000877,,,,,496.8841079999693,496.89891260000877,497.8985141001176,497.8985141001176,497.8985141001176,497.8985141001176,497.8985141001176,498.89883300010115,498.89883300010115,499.2991794999689,,,,,z,1,0.39583589998073876,None,,,,,5,001,2025-10-03_18h20.03.261,Motor Sequence 4.0,,2025.1.1,59.981741614342035,2025-10-03 18h20.10.702074 +0530,
150,v,98,98,24,v,1,0.6606983998790383,None,,,,,24,98,98,1,499.31536259991117,,,,,499.2996644999366,499.31536259991117,500.2989161000587,500.2989161000587,500.2989161000587,500.2989161000587,500.3155334999319,501.29865360003896,501.29865360003896,501.96567700011656,,,,,v,1,0.6606983998790383,None,,,,,5,001,2025-10-03_18h20.03.261,Motor Sequence 4.0,,2025.1.1,59.981741614342035,2025-10-03 18h20.10.702074 +0530,
50,c,99,99,24,c,1,0.4997524998616427,None,,,,,24,99,99,2,501.98191440012306,,,,,501.9661445999518,501.98191440012306,502.9650729999412,502.9650729999412,502.9650729999412,502.9650729999412,502.9819036000408,503.9649594000075,503.9649594000075,504.46559010003693,,,,,c,1,0.4997524998616427,None,,,,,5,001,2025-10-03_18h20.03.261,Motor Sequence 4.0,,2025.1.1,59.981741614342035,2025-10-03 18h20.10.702074 +0530,
,,,,,,,,,,,,,,,,,,,,,,,,,,,,,,,,,,,,,,,,504.4657809000928,504.4816501000896,509.4807551000267,509.4644625999499,5,001,2025-10-03_18h20.03.261,Motor Sequence 4.0,,2025.1.1,59.981741614342035,2025-10-03 18h20.10.702074 +0530,
