study_word,thisN,thisTrialN,thisRepN,slider.response,slider.rt,test_word,Refrence,old_new,textbox.text,mouse.x,mouse.y,mouse.leftButton,mouse.midButton,mouse.rightButton,mouse.time,mouse.clicked_name,trials.thisRepN,trials.thisTrialN,trials.thisN,trials.thisIndex,trials_2.thisRepN,trials_2.thisTrialN,trials_2.thisN,trials_2.thisIndex,thisRow.t,notes,trial.started,text.started,slider.started,trial.stopped,trials.slider.response,trials.slider.rt,test.started,text_2.started,textbox.started,text_3.started,mouse.started,test.stopped,trials_2.textbox.text,trials_2.mouse.x,trials_2.mouse.y,trials_2.mouse.leftButton,trials_2.mouse.midButton,trials_2.mouse.rightButton,trials_2.mouse.time,trials_2.mouse.clicked_name,text_2.stopped,textbox.stopped,text_3.stopped,mouse.stopped,participant,session,date,expName,expVersion,psychopyVersion,frameRate,expStart,
book,0,0,0,1,4.723092499945778,,,,,,,,,,,,0,0,0,0,,,,,0.048423900036141276,,0.027873000013642013,0.048423900036141276,0.048423900036141276,4.766444800014142,1,4.723092499945778,,,,,,,,,,,,,,,,,,,1,001,2025-10-13_16h12.29.919,Word_priming_5.0,,2025.1.1,60.17430089019183,2025-10-13 16h12.44.415478 +0530,
Pastry,1,1,0,2.046666666666667,3.7101885000010952,,,,,,,,,,,,0,1,1,9,,,,,4.797921099991072,,4.774783700006083,4.797921099991072,4.797921099991072,8.5011974000372,2.046666666666667,3.7101885000010952,,,,,,,,,,,,,,,,,,,1,001,2025-10-13_16h12.29.919,Word_priming_5.0,,2025.1.1,60.17430089019183,2025-10-13 16h12.44.415478 +0530,
phone,2,2,0,2.046666666666667,1.6224422000232153,,,,,,,,,,,,0,2,2,2,,,,,8.531340799992904,,8.510550200007856,8.531340799992904,8.531340799992904,10.149897199997213,2.046666666666667,1.6224422000232153,,,,,,,,,,,,,,,,,,,1,001,2025-10-13_16h12.29.919,Word_priming_5.0,,2025.1.1,60.17430089019183,2025-10-13 16h12.44.415478 +0530,
Keys,3,3,0,2.046666666666667,1.0255937000038102,,,,,,,,,,,,0,3,3,13,,,,,10.18067820003489,,10.156741500017233,10.18067820003489,10.18067820003489,11.199024100031238,2.046666666666667,1.0255937000038102,,,,,,,,,,,,,,,,,,,1,001,2025-10-13_16h12.29.919,Word_priming_5.0,,2025.1.1,60.17430089019183,2025-10-13 16h12.44.415478 +0530,
board,4,4,0,2.046666666666667,1.112338999984786,,,,,,,,,,,,0,4,4,4,,,,,11.214366900036111,,11.204396800021641,11.214366900036111,11.214366900036111,12.33312940003816,2.046666666666667,1.112338999984786,,,,,,,,,,,,,,,,,,,1,001,2025-10-13_16h12.29.919,Word_priming_5.0,,2025.1.1,60.17430089019183,2025-10-13 16h12.44.415478 +0530,
cushion,5,5,0,4.96,2.261542099993676,,,,,,,,,,,,0,5,5,1,,,,,12.36314480000874,,12.33741259999806,12.36314480000874,12.36314480000874,14.61564760003239,4.96,2.261542099993676,,,,,,,,,,,,,,,,,,,1,001,2025-10-13_16h12.29.919,Word_priming_5.0,,2025.1.1,60.17430089019183,2025-10-13 16h12.44.415478 +0530,
mouse,6,6,0,1.9133333333333333,1.7495742999599315,,,,,,,,,,,,0,6,6,8,,,,,14.630541699996684,,14.618296100001317,14.630541699996684,14.630541699996684,16.383168400032446,1.9133333333333333,1.7495742999599315,,,,,,,,,,,,,,,,,,,1,001,2025-10-13_16h12.29.919,Word_priming_5.0,,2025.1.1,60.17430089019183,2025-10-13 16h12.44.415478 +0530,
Police,7,7,0,1.9133333333333333,1.7304990999982692,,,,,,,,,,,,0,7,7,12,,,,,16.397590600012336,,16.38525260001188,16.397590600012336,16.397590600012336,18.13172880001366,1.9133333333333333,1.7304990999982692,,,,,,,,,,,,,,,,,,,1,001,2025-10-13_16h12.29.919,Word_priming_5.0,,2025.1.1,60.17430089019183,2025-10-13 16h12.44.415478 +0530,
Poster,8,8,0,1.9133333333333333,1.3492501000291668,,,,,,,,,,,,0,8,8,14,,,,,18.146503900003154,,18.13447550003184,18.146503900003154,18.146503900003154,19.498311100003775,1.9133333333333333,1.3492501000291668,,,,,,,,,,,,,,,,,,,1,001,2025-10-13_16h12.29.919,Word_priming_5.0,,2025.1.1,60.17430089019183,2025-10-13 16h12.44.415478 +0530,
marble,9,9,0,5,2.195909500005655,,,,,,,,,,,,0,9,9,3,,,,,19.512828100007027,,19.50177919998532,19.512828100007027,19.512828100007027,21.71404980000807,5,2.195909500005655,,,,,,,,,,,,,,,,,,,1,001,2025-10-13_16h12.29.919,Word_priming_5.0,,2025.1.1,60.17430089019183,2025-10-13 16h12.44.415478 +0530,
chart,10,10,0,1.9733333333333334,1.5001303000026383,,,,,,,,,,,,0,10,10,6,,,,,21.72969990002457,,21.716229400015436,21.72969990002457,21.72969990002457,23.23146690003341,1.9733333333333334,1.5001303000026383,,,,,,,,,,,,,,,,,,,1,001,2025-10-13_16h12.29.919,Word_priming_5.0,,2025.1.1,60.17430089019183,2025-10-13 16h12.44.415478 +0530,
T-shirt,11,11,0,1.9733333333333334,1.0272976999985985,,,,,,,,,,,,0,11,11,7,,,,,23.263320100028068,,23.238305200007744,23.263320100028068,23.263320100028068,24.280828699993435,1.9733333333333334,1.0272976999985985,,,,,,,,,,,,,,,,,,,1,001,2025-10-13_16h12.29.919,Word_priming_5.0,,2025.1.1,60.17430089019183,2025-10-13 16h12.44.415478 +0530,
Cruise,12,12,0,1.9733333333333334,1.3294540999922901,,,,,,,,,,,,0,12,12,11,,,,,24.29742030001944,,24.285043100011535,24.29742030001944,24.29742030001944,25.631700200028718,1.9733333333333334,1.3294540999922901,,,,,,,,,,,,,,,,,,,1,001,2025-10-13_16h12.29.919,Word_priming_5.0,,2025.1.1,60.17430089019183,2025-10-13 16h12.44.415478 +0530,
laptop,13,13,0,1.9733333333333334,1.7457384999725036,,,,,,,,,,,,0,13,13,5,,,,,25.64573940000264,,25.636220399988815,25.64573940000264,25.64573940000264,27.39774290000787,1.9733333333333334,1.7457384999725036,,,,,,,,,,,,,,,,,,,1,001,2025-10-13_16h12.29.919,Word_priming_5.0,,2025.1.1,60.17430089019183,2025-10-13 16h12.44.415478 +0530,
Case,14,14,0,4.153333333333333,2.097008500015363,,,,,,,,,,,,0,14,14,10,,,,,27.412205400003586,,27.40132760000415,27.412205400003586,27.412205400003586,29.51397090003593,4.153333333333333,2.097008500015363,,,,,,,,,,,,,,,,,,,1,001,2025-10-13_16h12.29.919,Word_priming_5.0,,2025.1.1,60.17430089019183,2025-10-13 16h12.44.415478 +0530,
,0,0,0,,,_oo_,book,old,book,"[np.float64(0.28833333333333333), np.float64(0.07333333333333333)]","[np.float64(-0.315), np.float64(-0.31166666666666665)]","[1, 1]","[0, 0]","[0, 0]","[0.03277779999189079, 4.381321399996523]","[None, 'text_3']",,,,,0,0,0,0,29.545186700008344,,,,,,,,29.53178180003306,29.545186700008344,29.545186700008344,29.545186700008344,0.017805500014219433,33.9134056000039,book,"[np.float64(0.28833333333333333), np.float64(0.07333333333333333)]","[np.float64(-0.315), np.float64(-0.31166666666666665)]","[1, 1]","[0, 0]","[0, 0]","[0.03277779999189079, 4.381321399996523]","[None, 'text_3']",,,,,1,001,2025-10-13_16h12.29.919,Word_priming_5.0,,2025.1.1,60.17430089019183,2025-10-13 16h12.44.415478 +0530,
,1,1,0,,,_ru_s_,Cruise,old,cruise,[np.float64(0.07)],[np.float64(-0.255)],[1],[0],[0],[5.612603200017475],['text_3'],,,,,0,1,1,11,33.9448160000029,,,,,,,,33.91677489998983,33.9448160000029,33.9448160000029,33.9448160000029,0.0031940999906510115,39.529742899991106,cruise,[np.float64(0.07)],[np.float64(-0.255)],[1],[0],[0],[5.612603200017475],['text_3'],,,,,1,001,2025-10-13_16h12.29.919,Word_priming_5.0,,2025.1.1,60.17430089019183,2025-10-13 16h12.44.415478 +0530,
,2,2,0,,,c_a_,Case,old,coat,[np.float64(0.07)],[np.float64(-0.255)],[1],[0],[0],[6.428355900046881],['text_3'],,,,,0,2,2,10,39.560035500035156,,,,,,,,39.533591700019315,39.560035500035156,39.560035500035156,39.560035500035156,0.0036348000285215676,45.96230930002639,coat,[np.float64(0.07)],[np.float64(-0.255)],[1],[0],[0],[6.428355900046881],['text_3'],,,,,1,001,2025-10-13_16h12.29.919,Word_priming_5.0,,2025.1.1,60.17430089019183,2025-10-13 16h12.44.415478 +0530,
,3,3,0,,,_ha_t,chart,old,chart,[np.float64(0.07)],[np.float64(-0.255)],[1],[0],[0],[4.628830300003756],['text_3'],,,,,0,3,3,6,45.97646790003637,,,,,,,,45.96556859998964,45.97646790003637,45.97646790003637,45.97646790003637,0.0031074999715201557,50.59471640002448,chart,[np.float64(0.07)],[np.float64(-0.255)],[1],[0],[0],[4.628830300003756],['text_3'],,,,,1,001,2025-10-13_16h12.29.919,Word_priming_5.0,,2025.1.1,60.17430089019183,2025-10-13 16h12.44.415478 +0530,
,4,4,0,,,_o_rd,board,old,board,[np.float64(0.07)],[np.float64(-0.255)],[1],[0],[0],[5.245366999995895],['text_3'],,,,,0,4,4,4,50.60939250001684,,,,,,,,50.59776350000175,50.60939250001684,50.60939250001684,50.60939250001684,0.002909699978772551,55.84339729999192,board,[np.float64(0.07)],[np.float64(-0.255)],[1],[0],[0],[5.245366999995895],['text_3'],,,,,1,001,2025-10-13_16h12.29.919,Word_priming_5.0,,2025.1.1,60.17430089019183,2025-10-13 16h12.44.415478 +0530,
,5,5,0,,,_ou_s_,mouse,old,mouse,[np.float64(0.07)],[np.float64(-0.255)],[1],[0],[0],[4.330871900019702],['text_3'],,,,,0,5,5,8,55.85856840002816,,,,,,,,55.84589860000415,55.85856840002816,55.85856840002816,55.85856840002816,0.002400800003670156,60.17703590000747,mouse,[np.float64(0.07)],[np.float64(-0.255)],[1],[0],[0],[4.330871900019702],['text_3'],,,,,1,001,2025-10-13_16h12.29.919,Word_priming_5.0,,2025.1.1,60.17430089019183,2025-10-13 16h12.44.415478 +0530,
,6,6,0,,,v_s_,vase,new,vase,[np.float64(0.07)],[np.float64(-0.255)],[1],[0],[0],[3.1113638000097126],['text_3'],,,,,0,6,6,17,60.19174000003841,,,,,,,,60.181716300023254,60.19174000003841,60.19174000003841,60.19174000003841,0.004572900012135506,63.293385400029365,vase,[np.float64(0.07)],[np.float64(-0.255)],[1],[0],[0],[3.1113638000097126],['text_3'],,,,,1,001,2025-10-13_16h12.29.919,Word_priming_5.0,,2025.1.1,60.17430089019183,2025-10-13 16h12.44.415478 +0530,
,7,7,0,,,_am_ra,camera,new,camera,[np.float64(0.07)],[np.float64(-0.255)],[1],[0],[0],[4.3629560000263155],['text_3'],,,,,0,7,7,19,63.323563000012655,,,,,,,,63.29765910003334,63.323563000012655,63.323563000012655,63.323563000012655,0.004083500010892749,67.66102520003915,camera,[np.float64(0.07)],[np.float64(-0.255)],[1],[0],[0],[4.3629560000263155],['text_3'],,,,,1,001,2025-10-13_16h12.29.919,Word_priming_5.0,,2025.1.1,60.17430089019183,2025-10-13 16h12.44.415478 +0530,
,8,8,0,,,T_hi_t,Tshirt,old,tshirt,[np.float64(0.07)],[np.float64(-0.255)],[1],[0],[0],[5.94155030004913],['text_3'],,,,,0,8,8,7,67.69062060001306,,,,,,,,67.66532979998738,67.69062060001306,67.69062060001306,67.69062060001306,0.004118400043807924,73.60725870000897,tshirt,[np.float64(0.07)],[np.float64(-0.255)],[1],[0],[0],[5.94155030004913],['text_3'],,,,,1,001,2025-10-13_16h12.29.919,Word_priming_5.0,,2025.1.1,60.17430089019183,2025-10-13 16h12.44.415478 +0530,
,9,9,0,,,K_y_,Keys,old,keys,[np.float64(0.07)],[np.float64(-0.255)],[1],[0],[0],[3.6473018000251614],['text_3'],,,,,0,9,9,13,73.62279970000964,,,,,,,,73.61021180002717,73.62279970000964,73.62279970000964,73.62279970000964,0.002787300036288798,77.25782050000271,keys,[np.float64(0.07)],[np.float64(-0.255)],[1],[0],[0],[3.6473018000251614],['text_3'],,,,,1,001,2025-10-13_16h12.29.919,Word_priming_5.0,,2025.1.1,60.17430089019183,2025-10-13 16h12.44.415478 +0530,
,10,10,0,,,_a_bl_,marble,old,table,[np.float64(0.07)],[np.float64(-0.255)],[1],[0],[0],[4.814218599989545],['text_3'],,,,,0,10,10,3,77.27265790000092,,,,,,,,77.26043299998855,77.27265790000092,77.27265790000092,77.27265790000092,0.002471200015861541,82.07501040003262,table,[np.float64(0.07)],[np.float64(-0.255)],[1],[0],[0],[4.814218599989545],['text_3'],,,,,1,001,2025-10-13_16h12.29.919,Word_priming_5.0,,2025.1.1,60.17430089019183,2025-10-13 16h12.44.415478 +0530,
,11,11,0,,,l_pt_p,laptop,old,laptop,[np.float64(0.07)],[np.float64(-0.255)],[1],[0],[0],[4.576229700003751],['text_3'],,,,,0,11,11,5,82.10438590002013,,,,,,,,82.07975330000045,82.10438590002013,82.10438590002013,82.10438590002013,0.0045894000213593245,86.65642150002532,laptop,[np.float64(0.07)],[np.float64(-0.255)],[1],[0],[0],[4.576229700003751],['text_3'],,,,,1,001,2025-10-13_16h12.29.919,Word_priming_5.0,,2025.1.1,60.17430089019183,2025-10-13 16h12.44.415478 +0530,
,12,12,0,,,c_s_io_,cushion,old,cushion,[np.float64(0.07)],[np.float64(-0.255)],[1],[0],[0],[5.946812200010754],['text_3'],,,,,0,12,12,1,86.68747380003333,,,,,,,,86.65969749999931,86.68747380003333,86.68747380003333,86.68747380003333,0.003180900006555021,92.60693840001477,cushion,[np.float64(0.07)],[np.float64(-0.255)],[1],[0],[0],[5.946812200010754],['text_3'],,,,,1,001,2025-10-13_16h12.29.919,Word_priming_5.0,,2025.1.1,60.17430089019183,2025-10-13 16h12.44.415478 +0530,
,13,13,0,,,b_tt_e,bottle,new,butter,[np.float64(0.07)],[np.float64(-0.255)],[1],[0],[0],[3.1948560000164434],['text_3'],,,,,0,13,13,18,92.62059950002003,,,,,,,,92.61017230001744,92.62059950002003,92.62059950002003,92.62059950002003,0.003061200026422739,95.80538490001345,butter,[np.float64(0.07)],[np.float64(-0.255)],[1],[0],[0],[3.1948560000164434],['text_3'],,,,,1,001,2025-10-13_16h12.29.919,Word_priming_5.0,,2025.1.1,60.17430089019183,2025-10-13 16h12.44.415478 +0530,
,14,14,0,,,_o_t_r,Poster,old,poster,[np.float64(0.07)],[np.float64(-0.255)],[1],[0],[0],[5.412160299951211],['text_3'],,,,,0,14,14,14,95.82048809999833,,,,,,,,95.80853730003582,95.82048809999833,95.82048809999833,95.82048809999833,0.0029969000024721026,101.22103670000797,poster,[np.float64(0.07)],[np.float64(-0.255)],[1],[0],[0],[5.412160299951211],['text_3'],,,,,1,001,2025-10-13_16h12.29.919,Word_priming_5.0,,2025.1.1,60.17430089019183,2025-10-13 16h12.44.415478 +0530,
,15,15,0,,,_ab_e,table,new,table,[np.float64(0.07)],[np.float64(-0.255)],[1],[0],[0],[5.529303700022865],['text_3'],,,,,0,15,15,15,101.25285510002868,,,,,,,,101.22480319999158,101.25285510002868,101.25285510002868,101.25285510002868,0.0036279999767430127,106.75455180002609,table,[np.float64(0.07)],[np.float64(-0.255)],[1],[0],[0],[5.529303700022865],['text_3'],,,,,1,001,2025-10-13_16h12.29.919,Word_priming_5.0,,2025.1.1,60.17430089019183,2025-10-13 16h12.44.415478 +0530,
,16,16,0,,,_ol_ce,Police,old,police,[np.float64(0.07)],[np.float64(-0.255)],[1],[0],[0],[3.9621856000158004],['text_3'],,,,,0,16,16,12,106.7698442999972,,,,,,,,106.75835290004034,106.7698442999972,106.7698442999972,106.7698442999972,0.003612800035625696,110.72093690000474,police,[np.float64(0.07)],[np.float64(-0.255)],[1],[0],[0],[3.9621856000158004],['text_3'],,,,,1,001,2025-10-13_16h12.29.919,Word_priming_5.0,,2025.1.1,60.17430089019183,2025-10-13 16h12.44.415478 +0530,
,17,17,0,,,p_s_ry,Pastry,old,pastry,[np.float64(0.07)],[np.float64(-0.255)],[1],[0],[0],[3.8453508999664336],['text_3'],,,,,0,17,17,9,110.73449440003606,,,,,,,,110.72381180000957,110.73449440003606,110.73449440003606,110.73449440003606,0.0027270999853499234,114.56948260002537,pastry,[np.float64(0.07)],[np.float64(-0.255)],[1],[0],[0],[3.8453508999664336],['text_3'],,,,,1,001,2025-10-13_16h12.29.919,Word_priming_5.0,,2025.1.1,60.17430089019183,2025-10-13 16h12.44.415478 +0530,
,18,18,0,,,_ho_n_,phone,old,phone,[],[],[],[],[],[],[],,,,,0,18,18,2,114.58442090003518,,,,,,,,114.571978699998,114.58442090003518,114.58442090003518,114.58442090003518,0.0023519000387750566,124.56883900001412,phone,[],[],[],[],[],[],[],124.60023320000619,124.60023320000619,124.60023320000619,9.998681400029454,1,001,2025-10-13_16h12.29.919,Word_priming_5.0,,2025.1.1,60.17430089019183,2025-10-13 16h12.44.415478 +0530,
,19,19,0,,,p_nc_l,pencil,new,,[np.float64(0.07)],[np.float64(-0.255)],[1],[0],[0],[0.29473720001988113],['text_3'],,,,,0,19,19,16,124.60023320000619,,,,,,,,124.57348230003845,124.60023320000619,124.60023320000619,124.60023320000619,0.003886000020429492,124.86872399999993,,[np.float64(0.07)],[np.float64(-0.255)],[1],[0],[0],[0.29473720001988113],['text_3'],,,,,1,001,2025-10-13_16h12.29.919,Word_priming_5.0,,2025.1.1,60.17430089019183,2025-10-13 16h12.44.415478 +0530,
